subj	trial	chimera	identity	orientation	rt	acc	group
1	1	L_R	other	upright	754.6	0	cp
1	2	L_L	other	upright	1036.1	1	cp
1	3	R_R	self	upright	433	1	cp
1	4	L_R	self	upright	463.4	1	cp
1	5	L_L	self	upright	483.3	1	cp
1	6	L_L	other	upright	392.9	0	cp
1	7	R_L	self	upright	252.2	0	cp
1	8	L_L	self	upright	523.6	1	cp
1	9	L_R	other	upright	463.3	0	cp
1	10	R_R	self	upright	503.3	1	cp
1	11	L_L	other	upright	784.6	1	cp
1	12	R_L	other	upright	845.5	1	cp
1	13	L_R	other	upright	784.7	1	cp
1	14	R_R	self	upright	634	1	cp
1	15	R_L	self	upright	493.5	1	cp
1	16	L_L	self	upright	754.7	1	cp
1	17	R_R	self	upright	573.7	1	cp
1	18	L_R	other	upright	744.6	1	cp
1	19	R_L	self	upright	593.9	1	cp
1	20	L_L	self	upright	583.6	1	cp
1	21	L_R	other	upright	412.8	0	cp
1	22	R_L	other	upright	674.4	1	cp
1	23	R_R	other	upright	634.3	1	cp
1	24	R_L	other	upright	573.7	1	cp
1	25	L_L	self	upright	362.7	0	cp
1	26	L_R	other	upright	975.6	1	cp
1	27	R_R	self	upright	563.7	1	cp
1	28	R_R	other	upright	563.5	1	cp
1	29	L_R	self	upright	483.6	1	cp
1	30	L_L	other	upright	734.5	1	cp
1	31	L_R	other	upright	844.9	1	cp
1	32	L_R	self	upright	714.3	1	cp
1	33	L_R	self	upright	553.5	1	cp
1	34	L_R	other	upright	1136.5	1	cp
1	35	R_R	other	upright	764.7	1	cp
1	36	L_R	self	upright	513.6	1	cp
1	37	R_R	self	upright	654.2	1	cp
1	38	L_R	self	upright	1216.7	1	cp
1	39	R_L	self	upright	634	1	cp
1	40	L_L	self	upright	614	1	cp
1	41	R_L	other	upright	573.7	1	cp
1	42	R_R	self	upright	674.3	1	cp
1	43	L_R	other	upright	834.9	1	cp
1	44	R_L	other	upright	895.1	1	cp
1	45	R_R	self	upright	503.4	1	cp
1	46	R_R	other	upright	593.9	1	cp
1	47	R_L	other	upright	1035.8	1	cp
1	48	R_L	self	upright	644	1	cp
1	49	R_L	other	upright	252.1	0	cp
1	50	L_L	other	upright	734.4	1	cp
1	51	R_R	other	upright	724.4	1	cp
1	52	R_L	self	upright	372.7	1	cp
1	53	R_R	other	upright	423	0	cp
1	54	R_L	other	upright	1035.8	1	cp
1	55	L_R	other	upright	875.1	1	cp
1	56	L_L	self	upright	704.3	1	cp
1	57	R_R	self	upright	754.5	1	cp
1	58	R_L	self	upright	1116.6	1	cp
1	59	L_L	other	upright	674.1	1	cp
1	60	L_L	other	upright	995.7	1	cp
1	61	R_R	self	upright	603.8	1	cp
1	62	R_R	other	upright	834.9	1	cp
1	63	L_L	other	upright	774.7	1	cp
1	64	L_L	self	upright	1126.3	1	cp
1	65	R_L	other	upright	674.1	1	cp
1	66	R_L	self	upright	975.9	1	cp
1	67	L_R	self	upright	543.5	1	cp
1	68	L_R	self	upright	513.5	1	cp
1	69	L_L	other	upright	824.9	1	cp
1	70	L_L	self	upright	573.9	1	cp
1	71	R_R	other	upright	774.7	1	cp
1	72	L_R	self	upright	503.3	1	cp
1	73	R_L	self	upright	392.9	1	cp
1	74	R_L	self	upright	453	1	cp
1	75	L_L	other	upright	543.6	0	cp
1	76	L_R	self	upright	654.1	0	cp
1	77	R_R	other	upright	432.9	0	cp
1	78	R_R	other	upright	684.2	1	cp
1	79	L_L	self	upright	563.7	1	cp
1	80	L_R	self	inverted	614.3	1	cp
1	81	R_L	other	inverted	1106.2	1	cp
1	82	R_L	self	inverted	644	1	cp
1	83	R_L	self	inverted	483.2	1	cp
1	84	R_L	self	inverted	322.5	1	cp
1	85	R_L	self	inverted	423.1	1	cp
1	86	L_L	self	inverted	433	1	cp
1	87	L_R	self	inverted	362.6	1	cp
1	88	R_R	other	inverted	242.1	0	cp
1	89	L_L	other	inverted	623.8	1	cp
1	90	R_R	other	inverted	473.2	1	cp
1	91	L_L	self	inverted	453.1	0	cp
1	92	L_L	self	inverted	584.1	1	cp
1	93	L_R	self	inverted	694.5	1	cp
1	94	L_L	other	inverted	1468	1	cp
1	95	R_R	self	inverted	382.8	1	cp
1	96	R_L	self	inverted	573.7	1	cp
1	97	L_R	other	inverted	955.5	1	cp
1	98	R_R	other	inverted	513.3	0	cp
1	99	R_L	other	inverted	563.6	0	cp
1	100	R_R	other	inverted	754.8	1	cp
1	101	R_R	other	inverted	875.2	1	cp
1	102	L_R	other	inverted	694.1	1	cp
1	103	L_L	other	inverted	573.7	0	cp
1	104	L_L	self	inverted	794.7	0	cp
1	105	R_L	self	inverted	804.7	1	cp
1	106	L_R	other	inverted	835	1	cp
1	107	L_R	self	inverted	473.2	1	cp
1	108	R_R	other	inverted	503.5	0	cp
1	109	R_L	other	inverted	704.8	1	cp
1	110	R_R	other	inverted	553.5	1	cp
1	111	L_L	self	inverted	483.6	0	cp
1	112	L_R	other	inverted	664.2	1	cp
1	113	L_R	self	inverted	694.4	1	cp
1	114	R_L	self	inverted	493.2	1	cp
1	115	L_L	self	inverted	493.3	1	cp
1	116	L_R	self	inverted	382.8	0	cp
1	117	R_L	other	inverted	694.4	1	cp
1	118	R_L	other	inverted	734.5	1	cp
1	119	R_R	self	inverted	553.5	1	cp
1	120	L_R	self	inverted	734.4	1	cp
1	121	L_R	other	inverted	724.5	1	cp
1	122	L_L	self	inverted	443.3	1	cp
1	123	R_L	self	inverted	443.1	1	cp
1	124	R_R	self	inverted	563.7	1	cp
1	125	R_R	other	inverted	784.9	1	cp
1	126	R_L	other	inverted	583.7	1	cp
1	127	L_L	self	inverted	593.9	1	cp
1	128	L_L	other	inverted	603.8	1	cp
1	129	R_R	other	inverted	523.5	1	cp
1	130	L_L	other	inverted	583.7	1	cp
1	131	L_L	self	inverted	583.9	0	cp
1	132	R_L	self	inverted	674.2	1	cp
1	133	R_R	self	inverted	453.2	1	cp
1	134	R_R	self	inverted	603.8	1	cp
1	135	L_L	other	inverted	824.9	1	cp
1	136	L_R	self	inverted	694.3	1	cp
1	137	R_L	other	inverted	704.4	1	cp
1	138	R_L	other	inverted	664	1	cp
1	139	R_R	self	inverted	885.1	1	cp
1	140	L_R	other	inverted	814.7	1	cp
1	141	L_R	self	inverted	584	1	cp
1	142	L_L	other	inverted	603.7	1	cp
1	143	R_L	other	inverted	794.7	1	cp
1	144	R_L	other	inverted	895.4	1	cp
1	145	L_R	other	inverted	674.2	1	cp
1	146	L_L	self	inverted	523.5	1	cp
1	147	R_R	other	inverted	633.8	1	cp
1	148	L_R	other	inverted	704.6	1	cp
1	149	L_L	other	inverted	754.6	1	cp
1	150	R_R	self	inverted	603.7	0	cp
1	151	R_R	self	inverted	603.8	1	cp
1	152	R_L	self	inverted	473.2	1	cp
1	153	L_L	other	inverted	362.8	0	cp
1	154	R_R	self	inverted	583.9	1	cp
1	155	L_L	other	inverted	734.7	1	cp
1	156	L_R	other	inverted	905.2	1	cp
1	157	L_R	other	inverted	875	1	cp
1	158	R_R	self	inverted	513.4	1	cp
1	159	L_R	self	inverted	674.4	1	cp
2	1	R_R	other	inverted	664.2	1	cg
2	2	L_L	self	inverted	875.1	1	cg
2	3	L_L	other	inverted	784.7	1	cg
2	4	L_R	self	inverted	564.2	1	cg
2	5	R_R	other	inverted	593.8	1	cg
2	6	L_R	self	inverted	593.9	1	cg
2	7	R_L	other	inverted	694.3	1	cg
2	8	L_L	other	inverted	744.6	1	cg
2	9	R_L	other	inverted	724.9	1	cg
2	10	R_L	other	inverted	905.4	1	cg
2	11	L_L	other	inverted	583.9	1	cg
2	12	L_L	other	inverted	714.6	1	cg
2	13	L_L	other	inverted	634.4	1	cg
2	14	L_R	other	inverted	533.5	0	cg
2	15	R_L	other	inverted	553.7	1	cg
2	16	L_R	other	inverted	654.7	1	cg
2	17	R_L	self	inverted	523.6	1	cg
2	18	R_L	self	inverted	664.5	1	cg
2	19	R_R	self	inverted	493.3	1	cg
2	20	R_L	other	inverted	634.1	1	cg
2	21	L_L	other	inverted	473.8	1	cg
2	22	L_R	self	inverted	543.7	1	cg
2	23	L_R	other	inverted	614	1	cg
2	24	R_L	self	inverted	543.6	1	cg
2	25	L_L	self	inverted	543.5	1	cg
2	26	R_R	other	inverted	714.5	1	cg
2	27	L_L	self	inverted	443.1	1	cg
2	28	L_R	other	inverted	563.8	1	cg
2	29	R_R	self	inverted	563.7	1	cg
2	30	L_R	other	inverted	574.3	1	cg
2	31	L_R	other	inverted	543.7	1	cg
2	32	L_L	other	inverted	523.5	1	cg
2	33	R_L	other	inverted	433.1	1	cg
2	34	L_R	self	inverted	664.2	1	cg
2	35	R_L	self	inverted	523.5	1	cg
2	36	R_R	self	inverted	754.7	1	cg
2	37	L_L	self	inverted	694.3	1	cg
2	38	L_R	other	inverted	603.9	1	cg
2	39	L_R	self	inverted	433	1	cg
2	40	R_R	self	inverted	754.8	1	cg
2	41	R_L	self	inverted	533.5	0	cg
2	42	L_L	self	inverted	644.1	1	cg
2	43	L_R	self	inverted	433.1	1	cg
2	44	R_R	self	inverted	453.1	1	cg
2	45	L_L	other	inverted	372.7	0	cg
2	46	R_R	self	inverted	573.7	1	cg
2	47	R_L	self	inverted	433.2	1	cg
2	48	L_R	other	inverted	533.6	1	cg
2	49	L_R	other	inverted	493.4	1	cg
2	50	L_R	self	inverted	664.2	1	cg
2	51	R_R	self	inverted	634.1	0	cg
2	52	R_L	other	inverted	875.3	1	cg
2	53	L_R	self	inverted	644.2	1	cg
2	54	R_L	self	inverted	634.4	1	cg
2	55	L_L	other	inverted	754.6	1	cg
2	56	L_L	self	inverted	674.3	1	cg
2	57	R_R	self	inverted	473.3	1	cg
2	58	R_R	other	inverted	563.7	1	cg
2	59	L_L	self	inverted	543.7	1	cg
2	60	L_L	self	inverted	503.4	1	cg
2	61	R_R	other	inverted	804.9	1	cg
2	62	L_R	self	inverted	503.5	1	cg
2	63	R_L	self	inverted	553.7	1	cg
2	64	R_R	other	inverted	573.8	1	cg
2	65	R_R	other	inverted	553.9	1	cg
2	66	R_L	other	inverted	493.4	1	cg
2	67	R_R	other	inverted	533.7	1	cg
2	68	L_R	self	inverted	553.9	1	cg
2	69	R_L	other	inverted	634.1	1	cg
2	70	R_L	self	inverted	463.7	1	cg
2	71	R_L	self	inverted	443.3	1	cg
2	72	L_R	other	inverted	543.7	1	cg
2	73	L_L	self	inverted	543.6	1	cg
2	74	R_R	self	inverted	543.8	1	cg
2	75	L_L	other	inverted	563.7	1	cg
2	76	R_L	other	inverted	613.9	1	cg
2	77	R_R	self	inverted	594	1	cg
2	78	R_R	other	inverted	473.2	0	cg
2	79	L_L	self	inverted	634	1	cg
2	80	R_R	other	inverted	664.2	1	cg
2	81	R_L	self	upright	533.6	1	cg
2	82	R_L	other	upright	563.6	1	cg
2	83	R_L	self	upright	453	1	cg
2	84	R_L	other	upright	644.1	1	cg
2	85	L_L	self	upright	503.6	1	cg
2	86	R_R	self	upright	463.3	1	cg
2	87	L_R	self	upright	845.1	1	cg
2	88	L_L	self	upright	433.1	1	cg
2	89	L_R	self	upright	503.4	1	cg
2	90	L_R	other	upright	513.5	1	cg
2	91	L_R	self	upright	553.7	1	cg
2	92	L_L	self	upright	533.6	1	cg
2	93	L_R	other	upright	503.4	1	cg
2	94	L_R	self	upright	533.5	1	cg
2	95	L_L	self	upright	503.4	1	cg
2	96	R_L	self	upright	453.5	0	cg
2	97	L_L	other	upright	875.3	1	cg
2	98	R_L	other	upright	573.8	1	cg
2	99	R_R	other	upright	503.5	1	cg
2	100	L_R	self	upright	483.8	1	cg
2	101	L_R	other	upright	553.7	1	cg
2	102	R_R	other	upright	463.6	1	cg
2	103	R_R	other	upright	533.5	1	cg
2	104	L_L	self	upright	513.4	1	cg
2	105	L_R	other	upright	473.2	1	cg
2	106	L_R	other	upright	523.8	1	cg
2	107	L_L	other	upright	503.5	1	cg
2	108	L_R	self	upright	594	1	cg
2	109	R_L	self	upright	523.7	1	cg
2	110	L_L	other	upright	604.6	1	cg
2	111	R_R	self	upright	483.3	1	cg
2	112	R_R	other	upright	533.5	1	cg
2	113	R_R	self	upright	513.4	1	cg
2	114	R_R	other	upright	583.9	1	cg
2	115	R_L	self	upright	503.3	1	cg
2	116	R_L	other	upright	514	1	cg
2	117	L_L	self	upright	563.7	1	cg
2	118	L_R	self	upright	503.4	1	cg
2	119	R_L	other	upright	443.2	0	cg
2	120	L_R	self	upright	533.7	1	cg
2	121	R_L	self	upright	573.9	1	cg
2	122	L_R	other	upright	593.8	1	cg
2	123	R_L	self	upright	604.1	1	cg
2	124	R_L	self	upright	523.4	1	cg
2	125	L_R	self	upright	654.8	1	cg
2	126	R_L	other	upright	523.6	1	cg
2	127	L_L	self	upright	463.2	1	cg
2	128	L_R	other	upright	593.8	1	cg
2	129	R_R	self	upright	433.1	1	cg
2	130	R_R	self	upright	523.5	1	cg
2	131	R_L	other	upright	493.4	1	cg
2	132	L_L	other	upright	654.2	1	cg
2	133	L_R	other	upright	503.6	1	cg
2	134	L_L	other	upright	433.1	0	cg
2	135	L_L	other	upright	463.6	1	cg
2	136	R_R	self	upright	543.6	1	cg
2	137	R_R	other	upright	483.3	1	cg
2	138	R_L	self	upright	523.5	1	cg
2	139	L_L	other	upright	372.7	1	cg
2	140	R_R	other	upright	413	1	cg
2	141	L_L	self	upright	754.6	1	cg
2	142	R_R	other	upright	644.4	1	cg
2	143	R_R	self	upright	533.6	1	cg
2	144	L_L	self	upright	423.2	1	cg
2	145	R_R	other	upright	402.8	1	cg
2	146	R_L	other	upright	553.7	1	cg
2	147	R_L	other	upright	533.5	1	cg
2	148	L_R	other	upright	473.3	1	cg
2	149	L_L	self	upright	493.3	1	cg
2	150	R_L	self	upright	603.8	1	cg
2	151	L_L	other	upright	433.1	1	cg
2	152	L_R	other	upright	382.8	1	cg
2	153	L_L	other	upright	573.8	1	cg
2	154	R_R	self	upright	513.7	1	cg
2	155	L_L	other	upright	483.3	1	cg
2	156	R_L	other	upright	443.3	1	cg
2	157	R_R	other	upright	463.5	1	cg
2	158	L_R	self	upright	583.8	1	cg
2	159	R_R	self	upright	493.5	1	cg
2	160	R_R	self	upright	553.8	1	cg
6	1	R_R	other	upright	835.2	0	cg
6	2	R_R	other	upright	985.9	1	cg
6	3	L_L	other	upright	875.3	1	cg
6	4	R_L	other	upright	785.1	1	cg
6	5	R_L	other	upright	935.6	1	cg
6	6	R_R	self	upright	794.8	1	cg
6	7	R_L	other	upright	815.4	1	cg
6	8	L_R	self	upright	765	1	cg
6	9	R_L	other	upright	604.1	1	cg
6	10	L_L	self	upright	604.2	1	cg
6	11	L_R	other	upright	955.9	1	cg
6	12	L_R	self	upright	784.9	1	cg
6	13	L_R	self	upright	785.3	1	cg
6	14	R_L	other	upright	895.6	1	cg
6	15	L_R	self	upright	775.1	1	cg
6	16	R_R	self	upright	704.5	1	cg
6	17	L_L	self	upright	755	1	cg
6	18	R_L	self	upright	764.9	1	cg
6	19	R_L	self	upright	564	1	cg
6	20	R_R	self	upright	664.2	1	cg
6	21	L_R	other	upright	664.4	1	cg
6	22	R_R	self	upright	674.4	1	cg
6	23	L_R	other	upright	895.6	1	cg
6	24	L_L	other	upright	1046.2	1	cg
6	25	R_R	other	upright	794.9	1	cg
6	26	L_R	other	upright	784.8	1	cg
6	27	R_L	self	upright	463.4	1	cg
6	28	L_L	other	upright	634.5	1	cg
6	29	R_L	other	upright	965.9	1	cg
6	30	R_L	other	upright	634.5	1	cg
6	31	L_R	self	upright	694.5	1	cg
6	32	R_L	self	upright	1518.6	1	cg
6	33	R_R	other	upright	815	1	cg
6	34	L_R	other	upright	684.7	1	cg
6	35	R_R	other	upright	412.9	1	cg
6	36	L_R	other	upright	644	1	cg
6	37	L_L	other	upright	684.5	1	cg
6	38	L_R	other	upright	1126.8	1	cg
6	39	L_R	other	upright	815	1	cg
6	40	L_R	self	upright	594.7	1	cg
6	41	R_R	self	upright	684.4	1	cg
6	42	L_L	other	upright	704.5	1	cg
6	43	L_L	other	upright	744.7	1	cg
6	44	R_L	self	upright	603.9	1	cg
6	45	R_R	self	upright	644.1	1	cg
6	46	R_L	self	upright	614	1	cg
6	47	L_R	self	upright	684.5	1	cg
6	48	L_L	self	upright	845.2	1	cg
6	49	R_L	other	upright	1005.9	1	cg
6	50	R_R	self	upright	674.6	1	cg
6	51	R_L	self	upright	825.3	1	cg
6	52	L_L	other	upright	724.6	1	cg
6	53	R_R	other	upright	885.3	1	cg
6	54	L_R	self	upright	955.8	1	cg
6	55	R_R	other	upright	714.7	1	cg
6	56	R_L	self	upright	694.6	1	cg
6	57	L_L	self	upright	794.8	1	cg
6	58	L_L	other	upright	865.2	1	cg
6	59	R_L	self	upright	664.8	1	cg
6	60	L_R	self	upright	714.5	1	cg
6	61	R_L	other	upright	614	1	cg
6	62	L_L	other	upright	604.2	1	cg
6	63	R_L	other	upright	634.3	1	cg
6	64	L_R	other	upright	945.7	1	cg
6	65	R_R	other	upright	1317.9	1	cg
6	66	R_R	self	upright	583.9	1	cg
6	67	R_L	self	upright	744.7	1	cg
6	68	L_R	self	upright	764.8	1	cg
6	69	L_L	self	upright	996	1	cg
6	70	L_L	self	upright	704.5	1	cg
6	71	R_R	other	upright	1016	1	cg
6	72	L_L	self	upright	885.6	1	cg
6	73	L_L	self	upright	734.8	1	cg
6	74	L_L	self	upright	613.9	1	cg
6	75	L_L	other	upright	694.2	1	cg
6	76	R_R	self	upright	755.1	1	cg
6	77	R_R	self	upright	654.2	1	cg
6	78	L_R	other	upright	644.1	1	cg
6	79	L_L	self	upright	996	1	cg
6	80	R_R	other	upright	795	1	cg
6	81	L_L	other	inverted	1116.9	1	cg
6	82	R_L	other	inverted	935.7	1	cg
6	83	R_R	self	inverted	543.9	1	cg
6	84	L_R	other	inverted	815.6	1	cg
6	85	R_R	self	inverted	654.2	1	cg
6	86	R_L	other	inverted	594	1	cg
6	87	R_R	other	inverted	1186.8	1	cg
6	88	L_R	other	inverted	563.9	1	cg
6	89	R_R	other	inverted	664.4	1	cg
6	90	L_R	self	inverted	714.4	1	cg
6	91	R_R	self	inverted	654.4	1	cg
6	92	L_R	other	inverted	875.3	1	cg
6	93	L_R	self	inverted	654	1	cg
6	94	L_L	other	inverted	754.9	1	cg
6	95	R_R	other	inverted	724.6	1	cg
6	96	R_R	self	inverted	614.2	1	cg
6	97	R_L	other	inverted	704.4	1	cg
6	98	R_L	other	inverted	895.4	1	cg
6	99	R_R	self	inverted	644.1	1	cg
6	100	R_R	other	inverted	1076.5	1	cg
6	101	R_R	other	inverted	755.2	1	cg
6	102	L_R	self	inverted	805.1	1	cg
6	103	R_L	other	inverted	815.1	1	cg
6	104	L_L	other	inverted	563.8	0	cg
6	105	L_R	other	inverted	855.3	1	cg
6	106	L_L	other	inverted	885.5	1	cg
6	107	L_R	other	inverted	734.6	1	cg
6	108	R_R	self	inverted	684.6	1	cg
6	109	L_L	self	inverted	734.7	1	cg
6	110	L_R	self	inverted	694.5	1	cg
6	111	R_L	other	inverted	704.6	1	cg
6	112	L_L	other	inverted	624.4	1	cg
6	113	L_L	self	inverted	764.8	1	cg
6	114	L_L	self	inverted	674.7	1	cg
6	115	L_R	other	inverted	604	0	cg
6	116	R_R	self	inverted	795	1	cg
6	117	R_L	self	inverted	694.2	1	cg
6	118	L_L	self	inverted	714.5	1	cg
6	119	R_R	self	inverted	624	1	cg
6	120	R_R	other	inverted	805.3	1	cg
6	121	L_L	other	inverted	1046.1	1	cg
6	122	L_R	other	inverted	724.5	1	cg
6	123	L_R	self	inverted	744.6	1	cg
6	124	R_L	self	inverted	835.4	1	cg
6	125	L_L	self	inverted	764.8	1	cg
6	126	R_R	other	inverted	805.2	1	cg
6	127	R_L	self	inverted	734.7	1	cg
6	128	R_L	self	inverted	724.6	1	cg
6	129	R_L	other	inverted	764.8	1	cg
6	130	L_R	self	inverted	553.8	1	cg
6	131	R_L	other	inverted	604.1	1	cg
6	132	L_L	other	inverted	765.1	1	cg
6	133	R_L	self	inverted	784.9	1	cg
6	134	L_L	other	inverted	764.9	1	cg
6	135	R_L	other	inverted	694.5	1	cg
6	136	L_R	other	inverted	794.9	1	cg
6	137	L_R	other	inverted	755	1	cg
6	138	R_R	self	inverted	785	1	cg
6	139	L_L	other	inverted	714.4	1	cg
6	140	R_L	self	inverted	805	1	cg
6	141	L_R	self	inverted	825.5	1	cg
6	142	R_R	other	inverted	744.5	1	cg
6	143	L_R	self	inverted	784.8	1	cg
6	144	R_R	other	inverted	624	1	cg
6	145	L_L	other	inverted	895.4	1	cg
6	146	R_L	self	inverted	714.6	1	cg
6	147	L_R	self	inverted	714.4	1	cg
6	148	R_L	self	inverted	996.1	1	cg
6	149	L_L	self	inverted	845.3	0	cg
6	150	L_R	other	inverted	744.8	1	cg
6	151	R_L	self	inverted	684.6	1	cg
6	152	R_L	other	inverted	724.5	1	cg
6	153	R_L	self	inverted	584.1	1	cg
6	154	R_R	other	inverted	724.5	1	cg
6	155	L_L	self	inverted	714.7	1	cg
6	156	L_R	self	inverted	634.1	1	cg
6	157	R_R	self	inverted	674.5	1	cg
6	158	L_L	self	inverted	594	1	cg
6	159	L_L	self	inverted	865.2	1	cg
6	160	L_L	self	inverted	785.2	1	cg
7	1	L_L	other	inverted	724.6	1	cg
7	2	R_R	other	inverted	724.8	1	cg
7	3	L_L	self	inverted	593.9	1	cg
7	4	L_L	other	inverted	674.2	1	cg
7	5	L_R	self	inverted	664.3	1	cg
7	6	R_R	other	inverted	613.9	1	cg
7	7	R_R	self	inverted	543.6	1	cg
7	8	R_L	other	inverted	714.5	1	cg
7	9	R_L	other	inverted	443.3	0	cg
7	10	R_R	other	inverted	694.3	1	cg
7	11	L_R	other	inverted	905.4	0	cg
7	12	R_L	self	inverted	895.3	1	cg
7	13	R_L	other	inverted	694.3	1	cg
7	14	L_L	self	inverted	603.8	1	cg
7	15	R_L	self	inverted	573.7	1	cg
7	16	R_R	self	inverted	624	1	cg
7	17	R_R	self	inverted	423.1	1	cg
7	18	R_L	other	inverted	593.7	1	cg
7	19	L_L	self	inverted	624.5	1	cg
7	20	R_L	self	inverted	744.5	1	cg
7	21	L_R	self	inverted	844.9	1	cg
7	22	R_R	other	inverted	684.2	1	cg
7	23	R_L	other	inverted	413.1	1	cg
7	24	L_L	self	inverted	583.8	1	cg
7	25	L_R	other	inverted	936.1	1	cg
7	26	L_L	other	inverted	855	1	cg
7	27	L_R	other	inverted	744.7	1	cg
7	28	L_R	other	inverted	603.8	0	cg
7	29	L_R	self	inverted	855	1	cg
7	30	L_R	other	inverted	724.5	1	cg
7	31	R_L	self	inverted	583.8	1	cg
7	32	L_L	other	inverted	824.9	1	cg
7	33	L_L	other	inverted	674.2	1	cg
7	34	R_R	self	inverted	714.5	1	cg
7	35	L_L	self	inverted	714.3	1	cg
7	36	R_R	self	inverted	744.5	1	cg
7	37	L_R	self	inverted	875.1	1	cg
7	38	R_R	other	inverted	925.6	1	cg
7	39	L_R	self	inverted	965.6	1	cg
7	40	R_L	self	inverted	975.7	1	cg
7	41	L_R	other	upright	593.7	0	cg
7	42	L_L	self	upright	1136.4	1	cg
7	43	L_L	self	upright	684.2	1	cg
7	44	L_R	other	upright	895.4	1	cg
7	45	R_L	self	upright	593.9	1	cg
7	46	R_R	self	upright	734.5	1	cg
7	47	L_L	other	upright	634.1	1	cg
7	48	R_L	other	upright	593.8	0	cg
7	49	R_R	other	upright	925.7	1	cg
7	50	R_L	other	upright	624	1	cg
7	51	L_L	other	upright	785.1	1	cg
7	52	R_R	self	upright	714.6	1	cg
7	53	R_R	other	upright	664.1	1	cg
7	54	R_R	self	upright	674.6	1	cg
7	55	L_R	other	upright	814.9	1	cg
7	56	L_R	self	upright	603.9	1	cg
7	57	R_R	other	upright	634	1	cg
7	58	L_R	self	upright	644	1	cg
7	59	L_L	other	upright	684.2	1	cg
7	60	L_L	self	upright	644.1	1	cg
7	61	L_R	self	upright	593.8	1	cg
7	62	R_R	self	upright	544.1	1	cg
7	63	R_L	other	upright	814.9	1	cg
7	64	R_R	self	upright	774.7	1	cg
7	65	R_L	other	upright	644.2	1	cg
7	66	R_L	self	upright	674.6	1	cg
7	67	R_L	self	upright	775.1	1	cg
7	68	L_L	self	upright	583.8	1	cg
7	69	L_L	other	upright	634	1	cg
7	70	R_L	self	upright	714.6	1	cg
7	71	L_L	self	upright	594	1	cg
7	72	L_R	self	upright	784.8	1	cg
7	73	L_L	other	upright	624	1	cg
7	74	L_R	self	upright	574.1	1	cg
7	75	R_R	other	upright	543.6	1	cg
7	76	R_R	other	upright	644.1	1	cg
7	77	L_R	other	upright	1026.1	1	cg
7	78	L_R	other	upright	654.5	1	cg
7	79	R_L	other	upright	624.2	1	cg
7	80	R_L	self	upright	574	1	cg
7	81	R_L	other	inverted	674.3	1	cg
7	82	L_R	self	inverted	523.5	1	cg
7	83	L_L	other	inverted	845.2	1	cg
7	84	L_R	other	inverted	875.3	0	cg
7	85	R_R	other	inverted	734.7	1	cg
7	86	L_R	other	inverted	664.2	1	cg
7	87	R_R	other	inverted	614.1	1	cg
7	88	L_L	other	inverted	724.6	0	cg
7	89	L_R	self	inverted	784.8	1	cg
7	90	R_R	self	inverted	724.4	1	cg
7	91	L_R	other	inverted	784.7	1	cg
7	92	L_L	self	inverted	563.7	1	cg
7	93	L_L	self	inverted	885.3	1	cg
7	94	R_L	other	inverted	644.1	1	cg
7	95	L_L	other	inverted	714.5	0	cg
7	96	L_L	other	inverted	644.2	1	cg
7	97	L_R	self	inverted	1076.3	0	cg
7	98	R_R	self	inverted	744.6	1	cg
7	99	L_R	self	inverted	593.8	1	cg
7	100	R_L	other	inverted	815.1	1	cg
7	101	L_L	self	inverted	593.9	1	cg
7	102	R_L	self	inverted	704.4	1	cg
7	103	L_R	other	inverted	603.9	1	cg
7	104	R_R	other	inverted	684.5	0	cg
7	105	L_L	other	inverted	935.6	1	cg
7	106	L_R	self	inverted	583.9	1	cg
7	107	R_R	self	inverted	744.6	1	cg
7	108	R_R	other	inverted	774.8	1	cg
7	109	R_L	other	inverted	604	1	cg
7	110	L_R	other	inverted	443.1	1	cg
7	111	L_L	self	inverted	745.3	1	cg
7	112	R_L	self	inverted	945.7	1	cg
7	113	R_R	self	inverted	603.9	1	cg
7	114	R_L	self	inverted	714.5	1	cg
7	115	R_R	self	inverted	634.1	1	cg
7	116	R_L	self	inverted	543.7	1	cg
7	117	L_L	self	inverted	734.6	1	cg
7	118	R_L	self	inverted	754.7	1	cg
7	119	R_L	other	inverted	855.3	1	cg
7	120	R_R	other	inverted	1026.1	1	cg
7	121	L_R	self	upright	553.8	1	cg
7	122	L_L	self	upright	614.1	1	cg
7	123	L_L	other	upright	634.1	1	cg
7	124	R_R	other	upright	624.1	1	cg
7	125	R_R	self	upright	865.2	1	cg
7	126	R_L	self	upright	513.5	1	cg
7	127	L_L	other	upright	855.2	1	cg
7	128	L_R	other	upright	825.1	1	cg
7	129	R_R	self	upright	654.1	1	cg
7	130	R_R	other	upright	704.4	1	cg
7	131	L_R	other	upright	684.5	1	cg
7	132	R_R	self	upright	895.3	1	cg
7	133	L_R	self	upright	674.3	1	cg
7	134	R_L	other	upright	704.6	1	cg
7	135	L_R	self	upright	784.9	1	cg
7	136	L_R	self	upright	583.9	1	cg
7	137	L_R	self	upright	815.7	1	cg
7	138	R_L	self	upright	483.4	1	cg
7	139	L_L	other	upright	614	1	cg
7	140	R_R	self	upright	654.1	1	cg
7	141	L_L	self	upright	654.1	0	cg
7	142	R_L	other	upright	734.6	1	cg
7	143	R_R	other	upright	694.5	1	cg
7	144	R_R	self	upright	573.8	1	cg
7	145	L_R	other	upright	724.6	1	cg
7	146	R_L	self	upright	533.6	1	cg
7	147	R_L	self	upright	724.7	1	cg
7	148	L_L	self	upright	654.2	1	cg
7	149	R_R	other	upright	624	1	cg
7	150	R_L	other	upright	804.9	1	cg
7	151	L_R	other	upright	734.6	0	cg
7	152	R_R	other	upright	593.9	1	cg
7	153	R_L	other	upright	794.7	1	cg
7	154	L_L	self	upright	634.1	1	cg
7	155	L_L	self	upright	553.8	1	cg
7	156	L_R	other	upright	563.8	1	cg
7	157	L_L	other	upright	624	1	cg
7	158	L_L	other	upright	483.4	1	cg
7	159	R_L	self	upright	382.8	0	cg
7	160	R_L	other	upright	664.2	1	cg
8	1	L_R	self	upright	684.4	1	cg
8	2	R_L	other	upright	754.7	1	cg
8	3	L_R	self	upright	483.5	1	cg
8	4	L_R	self	upright	513.5	1	cg
8	5	R_R	other	upright	664.2	1	cg
8	6	L_R	self	upright	503.4	1	cg
8	7	R_R	other	upright	724.7	1	cg
8	8	R_L	self	upright	473.3	1	cg
8	9	R_L	other	upright	634.2	1	cg
8	10	L_L	other	upright	794.7	1	cg
8	11	L_L	other	upright	563.8	1	cg
8	12	R_R	self	upright	644.2	1	cg
8	13	R_R	other	upright	594	1	cg
8	14	R_R	self	upright	664.5	1	cg
8	15	R_L	self	upright	674.3	1	cg
8	16	R_R	other	upright	574.1	1	cg
8	17	R_L	other	upright	684.4	1	cg
8	18	L_L	other	upright	845.2	1	cg
8	19	R_L	self	upright	614	1	cg
8	20	L_R	self	upright	664.4	1	cg
8	21	L_L	self	upright	603.9	1	cg
8	22	R_R	other	upright	634.1	1	cg
8	23	R_R	self	upright	584	1	cg
8	24	R_R	self	upright	674.5	1	cg
8	25	R_L	self	upright	594.1	1	cg
8	26	R_R	self	upright	654.3	1	cg
8	27	R_L	other	upright	754.8	1	cg
8	28	L_L	other	upright	794.9	1	cg
8	29	L_R	other	upright	644.3	1	cg
8	30	L_R	other	upright	694.4	1	cg
8	31	L_L	other	upright	915.7	1	cg
8	32	R_L	self	upright	644.2	1	cg
8	33	L_R	other	upright	523.6	1	cg
8	34	R_R	self	upright	624.1	1	cg
8	35	L_R	self	upright	654.3	1	cg
8	36	L_L	self	upright	453.5	1	cg
8	37	R_R	self	upright	483.6	1	cg
8	38	L_R	other	upright	533.6	1	cg
8	39	R_L	other	upright	714.5	1	cg
8	40	R_L	self	upright	533.7	1	cg
8	41	R_L	self	upright	634.1	1	cg
8	42	L_L	other	upright	724.6	1	cg
8	43	R_R	self	upright	704.5	1	cg
8	44	L_L	self	upright	644.1	1	cg
8	45	L_L	other	upright	634.6	1	cg
8	46	R_L	self	upright	533.6	1	cg
8	47	R_R	self	upright	553.7	1	cg
8	48	L_L	other	upright	614	1	cg
8	49	L_R	self	upright	553.8	1	cg
8	50	L_R	self	upright	624.1	1	cg
8	51	R_L	other	upright	895.4	1	cg
8	52	L_L	other	upright	583.8	1	cg
8	53	R_L	self	upright	573.9	1	cg
8	54	R_R	self	upright	583.8	1	cg
8	55	R_L	other	upright	573.8	1	cg
8	56	R_R	other	upright	654.3	1	cg
8	57	L_R	other	upright	724.5	1	cg
8	58	R_L	other	upright	523.7	1	cg
8	59	L_L	self	upright	523.6	1	cg
8	60	L_R	other	upright	513.8	1	cg
8	61	R_L	other	upright	523.8	1	cg
8	62	L_R	other	upright	583.9	1	cg
8	63	L_R	other	upright	563.8	1	cg
8	64	R_R	other	upright	473.8	1	cg
8	65	L_L	self	upright	573.8	1	cg
8	66	L_R	self	upright	644.2	1	cg
8	67	R_R	other	upright	503.8	1	cg
8	68	L_L	other	upright	624	1	cg
8	69	L_R	other	upright	644.2	1	cg
8	70	R_R	other	upright	533.7	1	cg
8	71	R_L	self	upright	563.8	1	cg
8	72	R_R	other	upright	503.4	1	cg
8	73	R_L	other	upright	433.8	1	cg
8	74	L_L	self	upright	533.9	1	cg
8	75	L_L	self	upright	553.8	1	cg
8	76	L_L	self	upright	543.6	1	cg
8	77	L_R	self	upright	503.5	1	cg
8	78	L_R	other	upright	583.8	1	cg
8	79	L_L	self	upright	503.4	1	cg
8	80	L_L	self	upright	543.8	1	cg
8	81	L_L	self	inverted	734.9	1	cg
8	82	R_L	self	inverted	624.5	1	cg
8	83	R_R	other	inverted	1036.5	1	cg
8	84	L_L	self	inverted	594.1	1	cg
8	85	R_L	self	inverted	593.9	1	cg
8	86	R_L	other	inverted	654.3	1	cg
8	87	L_L	other	inverted	794.9	1	cg
8	88	L_R	self	inverted	704.6	1	cg
8	89	R_R	self	inverted	694.5	1	cg
8	90	L_L	other	inverted	744.6	1	cg
8	91	L_R	self	inverted	795.3	1	cg
8	92	L_L	other	inverted	774.8	1	cg
8	93	R_R	self	inverted	604.3	1	cg
8	94	L_R	other	inverted	654.8	1	cg
8	95	L_R	self	inverted	925.6	1	cg
8	96	L_L	self	inverted	583.9	1	cg
8	97	R_L	self	inverted	614	1	cg
8	98	R_L	other	inverted	634.1	1	cg
8	99	R_L	other	inverted	624.1	1	cg
8	100	L_L	other	inverted	704.5	1	cg
8	101	R_L	other	inverted	634.3	1	cg
8	102	R_R	self	inverted	523.6	0	cg
8	103	R_R	other	inverted	975.9	1	cg
8	104	R_R	self	inverted	784.8	1	cg
8	105	R_R	self	inverted	915.6	1	cg
8	106	L_L	self	inverted	825.1	1	cg
8	107	L_L	other	inverted	845.2	1	cg
8	108	L_L	other	inverted	684.4	1	cg
8	109	L_R	self	inverted	714.7	1	cg
8	110	R_R	self	inverted	784.9	1	cg
8	111	R_L	other	inverted	684.4	1	cg
8	112	R_R	self	inverted	774.8	1	cg
8	113	R_R	other	inverted	644.2	1	cg
8	114	R_R	self	inverted	604.2	1	cg
8	115	L_R	other	inverted	493.3	1	cg
8	116	L_L	self	inverted	583.8	0	cg
8	117	R_L	other	inverted	835.1	1	cg
8	118	L_R	self	inverted	704.4	1	cg
8	119	L_R	self	inverted	704.7	1	cg
8	120	L_R	other	inverted	624.3	1	cg
8	121	L_L	other	inverted	815	1	cg
8	122	L_L	self	inverted	563.8	1	cg
8	123	L_R	self	inverted	825.3	1	cg
8	124	R_R	other	inverted	553.7	1	cg
8	125	L_R	self	inverted	563.8	1	cg
8	126	L_L	other	inverted	714.6	1	cg
8	127	L_R	other	inverted	684.3	1	cg
8	128	L_L	other	inverted	745.1	1	cg
8	129	R_L	self	inverted	583.9	1	cg
8	130	R_R	other	inverted	634.4	1	cg
8	131	R_R	other	inverted	715	1	cg
8	132	L_R	other	inverted	563.8	1	cg
8	133	R_L	self	inverted	704.6	1	cg
8	134	R_L	self	inverted	493.8	1	cg
8	135	R_R	other	inverted	654.2	1	cg
8	136	L_R	self	inverted	744.7	1	cg
8	137	R_L	other	inverted	805	1	cg
8	138	L_L	self	inverted	724.8	1	cg
8	139	L_R	self	inverted	855.2	1	cg
8	140	L_R	other	inverted	654.3	1	cg
8	141	L_L	self	inverted	584	1	cg
8	142	R_L	other	inverted	724.6	1	cg
8	143	L_R	other	inverted	573.7	1	cg
8	144	L_R	other	inverted	604.5	1	cg
8	145	R_L	self	inverted	533.6	1	cg
8	146	R_R	self	inverted	654.3	1	cg
8	147	L_L	self	inverted	563.7	1	cg
8	148	R_L	self	inverted	754.7	1	cg
8	149	R_L	self	inverted	644.1	1	cg
8	150	L_R	other	inverted	583.8	1	cg
8	151	R_R	self	inverted	734.5	1	cg
8	152	L_R	other	inverted	855.5	1	cg
8	153	R_R	other	inverted	583.9	1	cg
8	154	R_R	other	inverted	513.4	1	cg
8	155	R_R	other	inverted	563.7	1	cg
8	156	R_L	self	inverted	664.3	1	cg
8	157	R_L	other	inverted	614	1	cg
8	158	R_L	other	inverted	574	1	cg
8	159	L_L	other	inverted	604.1	1	cg
8	160	L_L	self	inverted	513.5	1	cg
12	1	R_L	self	inverted	1418.3	1	cp
12	2	L_R	other	inverted	704.5	1	cp
12	3	R_L	other	inverted	905.3	1	cp
12	4	R_R	self	inverted	1639	1	cp
12	5	R_R	self	inverted	805	1	cp
12	6	R_R	other	inverted	674.4	1	cp
12	7	L_L	self	inverted	734.5	1	cp
12	8	L_R	self	inverted	593.9	1	cp
12	9	R_L	self	inverted	865.3	1	cp
12	10	R_R	self	inverted	674.2	1	cp
12	11	L_R	self	inverted	513.3	1	cp
12	12	L_R	other	inverted	1006	0	cp
12	13	R_R	other	inverted	784.8	1	cp
12	14	R_R	self	inverted	553.6	1	cp
12	15	R_R	self	inverted	794.8	1	cp
12	16	L_L	other	inverted	634	1	cp
12	17	L_R	other	inverted	473.4	0	cp
12	18	L_R	other	inverted	1076.5	1	cp
12	19	R_R	other	inverted	573.9	1	cp
12	20	L_R	self	inverted	644.2	1	cp
12	21	R_L	self	inverted	603.9	1	cp
12	22	L_L	self	inverted	724.5	1	cp
12	23	R_R	self	inverted	523.6	1	cp
12	24	L_R	other	inverted	654	1	cp
12	25	L_L	self	inverted	503.6	1	cp
12	26	R_L	self	inverted	644.1	1	cp
12	27	L_R	self	inverted	533.7	1	cp
12	28	R_L	other	inverted	764.8	1	cp
12	29	L_L	other	inverted	875.3	1	cp
12	30	R_L	other	inverted	1498.4	1	cp
12	31	R_L	self	inverted	1307.5	1	cp
12	32	L_R	other	inverted	1578.8	1	cp
12	33	R_R	self	inverted	583.8	1	cp
12	34	L_L	self	inverted	583.8	1	cp
12	35	L_R	self	inverted	704.4	1	cp
12	36	L_L	other	inverted	613.9	1	cp
12	37	R_L	self	inverted	664.2	1	cp
12	38	L_L	self	inverted	845.4	1	cp
12	39	R_L	self	inverted	855.4	1	cp
12	40	L_L	other	inverted	905.6	1	cp
12	41	L_L	self	inverted	583.9	1	cp
12	42	R_L	other	inverted	634.1	1	cp
12	43	L_R	self	inverted	463.3	1	cp
12	44	L_R	other	inverted	694.5	0	cp
12	45	R_L	other	inverted	1106.3	1	cp
12	46	R_L	other	inverted	1086.3	1	cp
12	47	L_R	other	inverted	583.8	1	cp
12	48	L_L	other	inverted	714.4	1	cp
12	49	R_L	self	inverted	483.2	1	cp
12	50	L_R	self	inverted	774.7	1	cp
12	51	R_R	other	inverted	704.3	1	cp
12	52	R_L	other	inverted	503.4	0	cp
12	53	L_R	self	inverted	875.2	1	cp
12	54	L_L	self	inverted	694.5	1	cp
12	55	L_L	other	inverted	865.3	1	cp
12	56	L_R	other	inverted	1015.9	1	cp
12	57	R_R	self	inverted	684.5	1	cp
12	58	R_R	self	inverted	714.5	1	cp
12	59	L_R	self	inverted	895.4	1	cp
12	60	R_R	self	inverted	654.3	1	cp
12	61	R_R	other	inverted	865.2	0	cp
12	62	R_L	other	inverted	885.3	1	cp
12	63	R_R	other	inverted	684.2	1	cp
12	64	R_L	self	inverted	1347.5	1	cp
12	65	R_L	self	inverted	533.7	1	cp
12	66	L_L	other	inverted	795	1	cp
12	67	L_L	self	inverted	583.8	0	cp
12	68	R_R	other	inverted	875.3	1	cp
12	69	L_L	other	inverted	1046.1	1	cp
12	70	L_L	self	inverted	1186.6	1	cp
12	71	L_L	other	inverted	2221.9	1	cp
12	72	R_R	other	inverted	1709.1	1	cp
12	73	L_R	self	inverted	835.1	1	cp
12	74	R_R	other	inverted	754.7	1	cp
12	75	R_R	other	inverted	815.2	1	cp
12	76	L_L	other	inverted	1187.3	1	cp
12	77	R_L	other	inverted	885.4	1	cp
12	78	L_R	other	inverted	965.8	1	cp
12	79	R_L	other	inverted	875.3	1	cp
12	80	L_L	self	inverted	654.1	1	cp
12	81	R_L	self	upright	704.5	1	cp
12	82	R_R	self	upright	453.1	1	cp
12	83	R_R	other	upright	483.3	1	cp
12	84	R_L	other	upright	513.4	1	cp
12	85	R_R	other	upright	433	1	cp
12	86	R_L	self	upright	493.4	1	cp
12	87	L_L	other	upright	403	0	cp
12	88	L_R	self	upright	694.4	1	cp
12	89	R_R	other	upright	623.9	1	cp
12	90	R_L	self	upright	684.4	1	cp
12	91	L_L	self	upright	694.3	1	cp
12	92	R_L	other	upright	613.9	1	cp
12	93	R_R	self	upright	473.3	1	cp
12	94	R_L	self	upright	573.7	1	cp
12	95	R_R	self	upright	402.9	1	cp
12	96	R_R	self	upright	433.1	1	cp
12	97	L_R	self	upright	533.6	1	cp
12	98	L_R	other	upright	573.8	1	cp
12	99	L_R	other	upright	493.4	1	cp
12	100	L_R	self	upright	463.3	1	cp
12	101	R_L	other	upright	734.9	1	cp
12	102	L_R	other	upright	593.8	1	cp
12	103	L_L	other	upright	634.6	1	cp
12	104	L_R	self	upright	533.8	1	cp
12	105	L_R	self	upright	393	1	cp
12	106	L_R	self	upright	433.1	1	cp
12	107	R_L	other	upright	543.7	1	cp
12	108	L_R	self	upright	985.7	1	cp
12	109	L_R	other	upright	623.9	1	cp
12	110	L_R	other	upright	754.7	1	cp
12	111	R_L	other	upright	503.4	1	cp
12	112	L_R	other	upright	453.3	1	cp
12	113	R_L	other	upright	463.2	1	cp
12	114	R_L	self	upright	493.4	1	cp
12	115	L_R	other	upright	282.3	0	cp
12	116	L_L	self	upright	593.8	1	cp
12	117	L_L	self	upright	443.2	1	cp
12	118	R_R	self	upright	573.7	1	cp
12	119	R_R	other	upright	654.1	1	cp
12	120	R_L	other	upright	584	1	cp
12	121	R_L	self	upright	543.6	1	cp
12	122	R_L	self	upright	885.4	1	cp
12	123	L_L	other	upright	573.9	1	cp
12	124	L_R	other	upright	754.7	1	cp
12	125	R_L	self	upright	553.6	1	cp
12	126	R_L	self	upright	583.7	1	cp
12	127	L_L	self	upright	372.8	1	cp
12	128	L_L	other	upright	533.6	1	cp
12	129	L_L	self	upright	553.7	1	cp
12	130	R_R	other	upright	593.7	1	cp
12	131	L_L	other	upright	694.3	1	cp
12	132	L_R	other	upright	533.7	1	cp
12	133	L_L	other	upright	604.1	1	cp
12	134	R_R	other	upright	382.8	1	cp
12	135	L_L	other	upright	563.8	1	cp
12	136	R_R	other	upright	412.9	1	cp
12	137	R_R	self	upright	503.3	1	cp
12	138	R_R	self	upright	483.3	1	cp
12	139	L_L	self	upright	463.3	1	cp
12	140	R_R	other	upright	754.6	1	cp
12	141	L_L	other	upright	513.4	1	cp
12	142	L_L	self	upright	694.3	1	cp
12	143	R_R	other	upright	583.9	1	cp
12	144	L_R	other	upright	563.7	1	cp
12	145	L_R	self	upright	553.5	1	cp
12	146	R_R	other	upright	604	1	cp
12	147	R_R	self	upright	453.1	1	cp
12	148	L_L	other	upright	523.5	0	cp
12	149	R_L	self	upright	463.3	1	cp
12	150	L_L	self	upright	463.2	1	cp
12	151	L_L	self	upright	644	1	cp
12	152	L_R	self	upright	493.4	1	cp
12	153	R_L	other	upright	573.8	1	cp
12	154	R_R	self	upright	473.3	1	cp
12	155	L_L	self	upright	312.5	1	cp
12	156	L_R	self	upright	574.3	1	cp
12	157	R_L	other	upright	603.9	1	cp
12	158	L_L	other	upright	865.3	1	cp
12	159	R_R	self	upright	412.9	1	cp
12	160	R_L	other	upright	654.1	1	cp
13	1	L_L	other	inverted	453.3	0	cp
13	2	R_R	other	inverted	614	1	cp
13	3	L_L	self	inverted	855.4	1	cp
13	4	R_R	other	inverted	654.4	0	cp
13	5	L_R	self	inverted	905.4	1	cp
13	6	L_L	self	inverted	835.3	1	cp
13	7	R_R	self	inverted	875.5	1	cp
13	8	R_L	other	inverted	865.4	0	cp
13	9	L_R	other	inverted	1006	1	cp
13	10	R_R	other	inverted	885.4	1	cp
13	11	L_L	other	inverted	795.5	1	cp
13	12	R_L	self	inverted	885.8	1	cp
13	13	L_L	self	inverted	865.7	1	cp
13	14	R_L	self	inverted	634	1	cp
13	15	L_L	self	inverted	584.1	1	cp
13	16	R_L	self	inverted	845.2	1	cp
13	17	R_R	self	inverted	644.3	1	cp
13	18	R_R	self	inverted	1146.9	1	cp
13	19	R_R	self	inverted	725.4	1	cp
13	20	L_R	other	inverted	745.3	1	cp
13	21	L_R	self	inverted	724.6	1	cp
13	22	R_L	self	inverted	714.6	1	cp
13	23	L_L	other	inverted	785	0	cp
13	24	R_R	self	inverted	623.9	1	cp
13	25	R_L	self	inverted	684.3	1	cp
13	26	R_L	other	inverted	764.7	1	cp
13	27	L_R	other	inverted	754.8	1	cp
13	28	L_L	self	inverted	583.9	1	cp
13	29	R_R	other	inverted	825.3	0	cp
13	30	R_L	self	inverted	1116.6	1	cp
13	31	R_R	self	inverted	503.7	1	cp
13	32	L_R	other	inverted	694.6	1	cp
13	33	R_L	other	inverted	1066.4	0	cp
13	34	L_L	self	inverted	634.5	1	cp
13	35	L_L	self	inverted	765.2	1	cp
13	36	L_L	other	inverted	654.6	0	cp
13	37	R_R	other	inverted	825.2	0	cp
13	38	R_L	self	inverted	895.4	1	cp
13	39	R_R	other	inverted	1026.2	1	cp
13	40	L_L	self	inverted	574.1	1	cp
13	41	R_R	other	inverted	835.7	1	cp
13	42	L_L	self	inverted	1197	1	cp
13	43	L_R	self	inverted	624.5	1	cp
13	44	L_R	other	inverted	935.6	1	cp
13	45	L_R	other	inverted	855.3	1	cp
13	46	R_R	self	inverted	483.3	1	cp
13	47	R_L	self	inverted	775	1	cp
13	48	L_R	self	inverted	855.1	1	cp
13	49	R_R	other	inverted	604	1	cp
13	50	R_R	self	inverted	845.7	0	cp
13	51	L_L	other	inverted	785.5	0	cp
13	52	R_L	other	inverted	825.6	0	cp
13	53	L_L	other	inverted	1549.1	1	cp
13	54	L_R	self	inverted	754.7	1	cp
13	55	R_R	self	inverted	905.4	0	cp
13	56	R_L	other	inverted	866	0	cp
13	57	L_L	self	inverted	815	1	cp
13	58	L_R	other	inverted	684.3	0	cp
13	59	L_R	self	inverted	674.4	1	cp
13	60	R_L	other	inverted	825.1	1	cp
13	61	R_L	other	inverted	1418.3	1	cp
13	62	R_R	other	inverted	986.2	1	cp
13	63	L_R	self	inverted	815	1	cp
13	64	L_R	other	inverted	986	0	cp
13	65	L_L	other	inverted	966.2	0	cp
13	66	L_R	self	inverted	1488.5	1	cp
13	67	L_R	other	inverted	1227.5	1	cp
13	68	R_L	other	inverted	684.3	1	cp
13	69	R_L	other	inverted	975.7	0	cp
13	70	R_R	other	inverted	593.8	1	cp
13	71	L_L	other	inverted	755.1	0	cp
13	72	L_R	other	inverted	815.7	0	cp
13	73	R_L	self	inverted	694.6	1	cp
13	74	R_R	self	inverted	734.9	1	cp
13	75	L_L	other	inverted	855.2	0	cp
13	76	L_R	self	inverted	744.8	1	cp
13	77	L_L	other	inverted	674.4	0	cp
13	78	L_R	self	inverted	644.1	1	cp
13	79	R_L	self	inverted	574	1	cp
13	80	R_L	other	inverted	513.7	0	cp
13	81	L_R	self	upright	875.3	1	cp
13	82	R_R	self	upright	724.4	1	cp
13	83	L_R	other	upright	785	1	cp
13	84	R_L	other	upright	654.3	1	cp
13	85	R_L	other	upright	815.1	0	cp
13	86	R_L	other	upright	1077	1	cp
13	87	R_L	self	upright	794.8	1	cp
13	88	R_R	other	upright	664.5	1	cp
13	89	L_L	other	upright	855.3	1	cp
13	90	R_R	other	upright	795	1	cp
13	91	R_L	self	upright	634.2	1	cp
13	92	L_L	self	upright	634.1	1	cp
13	93	L_L	self	upright	423.5	1	cp
13	94	R_R	other	upright	730.1	1	cp
13	95	L_L	other	upright	845.7	1	cp
13	96	R_L	self	upright	999.2	1	cp
13	97	L_R	self	upright	524.1	1	cp
13	98	R_L	self	upright	685.6	1	cp
13	99	L_L	self	upright	413.9	1	cp
13	100	L_L	self	upright	525.3	1	cp
13	101	L_L	self	upright	475	1	cp
13	102	R_R	self	upright	574.6	1	cp
13	103	R_L	self	upright	676.9	1	cp
13	104	R_R	other	upright	796	1	cp
13	105	L_R	other	upright	725.8	1	cp
13	106	R_R	other	upright	504	1	cp
13	107	L_R	other	upright	635.3	1	cp
13	108	L_R	other	upright	494.4	1	cp
13	109	R_R	self	upright	585.2	0	cp
13	110	L_R	self	upright	595.6	1	cp
13	111	R_L	other	upright	756.3	1	cp
13	112	R_R	self	upright	998.1	1	cp
13	113	L_R	other	upright	636	1	cp
13	114	L_L	self	upright	768.6	1	cp
13	115	R_L	self	upright	514.3	1	cp
13	116	L_R	self	upright	675.7	1	cp
13	117	R_L	other	upright	695.5	1	cp
13	118	L_L	other	upright	1491.3	1	cp
13	119	R_R	other	upright	866.9	1	cp
13	120	L_R	other	upright	625.5	1	cp
13	121	R_L	other	upright	665.5	1	cp
13	122	L_R	self	upright	665	1	cp
13	123	L_R	other	upright	654.8	1	cp
13	124	L_R	other	upright	685.2	1	cp
13	125	R_L	other	upright	695.7	1	cp
13	126	L_R	other	upright	726.2	1	cp
13	127	L_L	other	upright	474.6	1	cp
13	128	R_R	other	upright	584.9	1	cp
13	129	L_L	self	upright	715.6	1	cp
13	130	L_L	other	upright	655.3	1	cp
13	131	R_L	self	upright	594.7	1	cp
13	132	L_L	self	upright	574.3	1	cp
13	133	R_R	self	upright	796.5	1	cp
13	134	L_L	other	upright	685.4	1	cp
13	135	L_L	other	upright	816.6	1	cp
13	136	L_R	self	upright	706.8	1	cp
13	137	R_R	other	upright	836.3	1	cp
13	138	L_L	other	upright	624.5	1	cp
13	139	R_L	self	upright	866.4	1	cp
13	140	L_L	self	upright	735.4	1	cp
13	141	L_L	other	upright	624.8	1	cp
13	142	L_R	self	upright	625.9	1	cp
13	143	R_L	other	upright	757.1	1	cp
13	144	R_L	other	upright	655.7	1	cp
13	145	R_R	other	upright	555.3	1	cp
13	146	R_R	self	upright	635.4	1	cp
13	147	L_R	other	upright	666	1	cp
13	148	R_R	self	upright	726.2	1	cp
13	149	R_L	self	upright	505.3	1	cp
13	150	R_L	other	upright	596.5	1	cp
13	151	L_L	self	upright	685.4	1	cp
13	152	L_R	self	upright	615.9	1	cp
13	153	L_R	self	upright	524.5	1	cp
13	154	L_L	other	upright	626.6	1	cp
13	155	L_R	self	upright	504.6	0	cp
13	156	R_R	self	upright	615.2	1	cp
13	157	R_L	self	upright	564.2	1	cp
13	158	R_R	self	upright	847.9	1	cp
13	159	R_R	self	upright	494.8	1	cp
13	160	R_R	other	upright	585.1	1	cp
15	1	R_L	self	upright	784.8	1	cg
15	2	L_R	other	upright	865.1	1	cg
15	3	L_R	other	upright	624.1	1	cg
15	4	R_R	self	upright	633.9	1	cg
15	5	L_R	other	upright	684.2	1	cg
15	6	L_L	other	upright	654.2	1	cg
15	7	R_L	other	upright	604	1	cg
15	8	L_L	self	upright	533.5	1	cg
15	9	L_L	other	upright	623.9	1	cg
15	10	L_R	self	upright	523.5	1	cg
15	11	L_L	self	upright	533.9	1	cg
15	12	R_L	self	upright	433.4	1	cg
15	13	R_R	other	upright	664.3	1	cg
15	14	L_L	other	upright	613.9	1	cg
15	15	L_L	self	upright	634	1	cg
15	16	L_L	self	upright	613.9	1	cg
15	17	R_L	self	upright	543.6	1	cg
15	18	R_L	other	upright	694.3	1	cg
15	19	R_L	other	upright	684.2	1	cg
15	20	R_R	self	upright	654	1	cg
15	21	R_L	other	upright	634	1	cg
15	22	L_L	other	upright	674.5	1	cg
15	23	R_L	self	upright	523.6	1	cg
15	24	L_R	other	upright	603.8	1	cg
15	25	L_L	other	upright	573.6	1	cg
15	26	R_R	other	upright	574.2	1	cg
15	27	L_R	self	upright	573.7	1	cg
15	28	L_L	other	upright	513.4	1	cg
15	29	L_L	self	upright	543.6	1	cg
15	30	R_R	self	upright	583.8	1	cg
15	31	L_L	other	upright	513.5	1	cg
15	32	L_R	self	upright	463.1	1	cg
15	33	R_R	self	upright	523.5	1	cg
15	34	R_R	self	upright	503.3	1	cg
15	35	R_R	other	upright	755.2	1	cg
15	36	L_R	other	upright	704.6	1	cg
15	37	L_L	other	upright	523.8	1	cg
15	38	R_R	self	upright	543.6	1	cg
15	39	L_L	self	upright	654.2	1	cg
15	40	L_R	other	upright	594	1	cg
15	41	R_R	other	upright	684.7	1	cg
15	42	L_R	self	upright	714.5	1	cg
15	43	L_L	self	upright	392.9	1	cg
15	44	R_R	other	upright	513.3	1	cg
15	45	R_L	other	upright	644.4	1	cg
15	46	R_L	self	upright	583.8	1	cg
15	47	L_L	self	upright	523.6	1	cg
15	48	R_L	other	upright	674.1	1	cg
15	49	R_R	self	upright	815	1	cg
15	50	L_R	self	upright	593.9	1	cg
15	51	R_L	other	upright	593.9	1	cg
15	52	R_R	self	upright	855	1	cg
15	53	L_R	self	upright	714.4	1	cg
15	54	R_R	other	upright	563.7	1	cg
15	55	L_R	self	upright	513.4	1	cg
15	56	R_R	self	upright	644.1	1	cg
15	57	R_L	other	upright	523.5	1	cg
15	58	R_L	other	upright	734.7	1	cg
15	59	R_R	other	upright	493.3	1	cg
15	60	R_L	self	upright	423	1	cg
15	61	L_R	other	upright	603.9	1	cg
15	62	R_R	self	upright	513.6	1	cg
15	63	L_R	self	upright	533.4	1	cg
15	64	L_L	self	upright	423	1	cg
15	65	R_R	other	upright	593.9	1	cg
15	66	L_L	self	upright	754.7	1	cg
15	67	R_R	other	upright	694.5	1	cg
15	68	R_L	self	upright	473.2	1	cg
15	69	R_L	self	upright	684.2	1	cg
15	70	L_L	other	upright	583.8	1	cg
15	71	L_R	other	upright	634.1	1	cg
15	72	R_L	other	upright	654.1	1	cg
15	73	L_R	other	upright	694.3	1	cg
15	74	R_L	self	upright	453.2	1	cg
15	75	R_L	self	upright	543.9	1	cg
15	76	L_R	self	upright	463.2	1	cg
15	77	L_R	self	upright	463.4	1	cg
15	78	L_R	other	upright	573.8	1	cg
15	79	R_R	other	upright	664.2	1	cg
15	80	L_L	other	upright	593.8	1	cg
15	81	R_R	other	inverted	814.9	1	cg
15	82	R_R	self	inverted	573.8	1	cg
15	83	L_L	other	inverted	714.5	1	cg
15	84	L_L	self	inverted	654.2	1	cg
15	85	L_L	other	inverted	644.1	1	cg
15	86	R_R	self	inverted	684.4	1	cg
15	87	L_R	other	inverted	674.4	1	cg
15	88	R_R	self	inverted	654.1	1	cg
15	89	R_R	self	inverted	553.6	1	cg
15	90	L_R	self	inverted	603.8	1	cg
15	91	R_R	self	inverted	654.1	1	cg
15	92	L_L	self	inverted	483.3	1	cg
15	93	L_R	self	inverted	423.1	1	cg
15	94	R_R	other	inverted	443	0	cg
15	95	R_L	self	inverted	513.3	1	cg
15	96	L_L	self	inverted	583.9	1	cg
15	97	L_R	other	inverted	744.5	1	cg
15	98	R_R	other	inverted	945.5	1	cg
15	99	R_R	other	inverted	764.7	1	cg
15	100	L_R	self	inverted	624.1	1	cg
15	101	L_R	other	inverted	604.1	1	cg
15	102	R_L	self	inverted	603.7	1	cg
15	103	L_L	self	inverted	543.6	1	cg
15	104	L_L	self	inverted	694.4	1	cg
15	105	R_L	other	inverted	714.8	1	cg
15	106	L_R	other	inverted	674.6	1	cg
15	107	R_L	self	inverted	745.4	1	cg
15	108	R_L	other	inverted	483.4	1	cg
15	109	R_R	other	inverted	774.7	1	cg
15	110	L_R	other	inverted	905.3	1	cg
15	111	L_L	self	inverted	604	1	cg
15	112	L_L	other	inverted	603.9	1	cg
15	113	R_L	other	inverted	654.1	1	cg
15	114	L_L	self	inverted	704.3	1	cg
15	115	R_L	other	inverted	744.5	1	cg
15	116	L_R	self	inverted	603.9	1	cg
15	117	L_L	other	inverted	593.8	1	cg
15	118	R_R	other	inverted	694.3	1	cg
15	119	L_L	self	inverted	714.3	1	cg
15	120	L_R	self	inverted	694.3	1	cg
15	121	L_R	other	inverted	613.9	1	cg
15	122	R_R	self	inverted	553.6	1	cg
15	123	R_L	self	inverted	583.9	1	cg
15	124	L_L	other	inverted	684.3	1	cg
15	125	R_R	self	inverted	593.9	1	cg
15	126	L_L	self	inverted	764.6	1	cg
15	127	R_L	self	inverted	583.6	1	cg
15	128	R_L	other	inverted	593.8	1	cg
15	129	R_L	other	inverted	734.6	1	cg
15	130	L_R	self	inverted	855.4	1	cg
15	131	R_L	self	inverted	553.7	1	cg
15	132	R_L	self	inverted	835.2	1	cg
15	133	R_L	self	inverted	553.7	1	cg
15	134	R_L	self	inverted	563.6	1	cg
15	135	L_R	self	inverted	644.4	1	cg
15	136	L_R	self	inverted	634.1	1	cg
15	137	L_R	other	inverted	684.3	1	cg
15	138	R_R	self	inverted	1076.2	1	cg
15	139	L_R	other	inverted	714.5	1	cg
15	140	L_L	self	inverted	704.3	1	cg
15	141	R_L	other	inverted	674.4	1	cg
15	142	L_R	other	inverted	614	1	cg
15	143	R_R	other	inverted	483.3	1	cg
15	144	R_R	other	inverted	654.2	1	cg
15	145	R_L	other	inverted	463.2	1	cg
15	146	L_R	self	inverted	815.4	1	cg
15	147	L_R	self	inverted	594.2	1	cg
15	148	R_R	self	inverted	563.9	1	cg
15	149	R_R	self	inverted	704.6	1	cg
15	150	R_R	other	inverted	674.2	1	cg
15	151	R_R	other	inverted	835.3	1	cg
15	152	L_L	other	inverted	724.5	1	cg
15	153	R_L	other	inverted	865.1	1	cg
15	154	L_L	other	inverted	603.8	1	cg
15	155	L_L	other	inverted	734.5	1	cg
15	156	L_R	other	inverted	654.1	1	cg
15	157	L_L	other	inverted	674.1	1	cg
15	158	R_L	other	inverted	563.7	1	cg
15	159	L_L	other	inverted	543.6	1	cg
15	160	R_L	self	inverted	1106.2	1	cg
20	1	R_R	other	upright	704.6	1	cg
20	2	L_R	other	upright	584	1	cg
20	3	R_L	other	upright	624	1	cg
20	4	L_R	other	upright	583.8	1	cg
20	5	L_R	self	upright	453.2	1	cg
20	6	L_L	other	upright	574.3	1	cg
20	7	R_L	self	upright	714.4	1	cg
20	8	R_R	other	upright	553.6	1	cg
20	9	R_R	self	upright	503.6	1	cg
20	10	L_R	self	upright	594	1	cg
20	11	L_L	other	upright	574.1	1	cg
20	12	R_R	self	upright	574	1	cg
20	13	R_L	other	upright	573.7	1	cg
20	14	L_L	self	upright	623.9	1	cg
20	15	R_R	self	upright	493.4	1	cg
20	16	R_L	other	upright	513.9	1	cg
20	17	R_R	other	upright	614	1	cg
20	18	R_L	other	upright	624.1	1	cg
20	19	L_L	other	upright	563.8	1	cg
20	20	R_L	other	upright	563.9	1	cg
20	21	L_R	self	upright	543.8	1	cg
20	22	L_L	self	upright	614.7	1	cg
20	23	L_L	self	upright	433.1	1	cg
20	24	L_L	other	upright	553.6	1	cg
20	25	L_L	self	upright	684.2	1	cg
20	26	R_L	self	upright	503.8	1	cg
20	27	R_R	self	upright	523.9	1	cg
20	28	R_L	other	upright	563.9	1	cg
20	29	L_L	other	upright	614	1	cg
20	30	L_L	self	upright	654.2	1	cg
20	31	R_L	self	upright	523.7	1	cg
20	32	L_R	self	upright	573.7	1	cg
20	33	L_R	self	upright	604	1	cg
20	34	R_R	other	upright	654.3	1	cg
20	35	R_R	other	upright	583.9	1	cg
20	36	L_R	other	upright	634.6	1	cg
20	37	R_R	self	upright	563.8	1	cg
20	38	R_R	self	upright	513.4	1	cg
20	39	R_R	other	upright	634.1	1	cg
20	40	L_R	self	upright	543.6	1	cg
20	41	R_R	self	upright	513.6	1	cg
20	42	L_L	other	upright	543.7	1	cg
20	43	R_R	self	upright	523.9	1	cg
20	44	R_L	self	upright	523.8	1	cg
20	45	R_L	self	upright	594.1	1	cg
20	46	L_R	self	upright	513.8	1	cg
20	47	L_L	self	upright	573.7	1	cg
20	48	L_L	other	upright	583.9	1	cg
20	49	R_R	other	upright	573.9	1	cg
20	50	R_L	self	upright	523.5	1	cg
20	51	L_R	self	upright	483.4	1	cg
20	52	R_L	other	upright	483.4	1	cg
20	53	R_L	self	upright	473.4	1	cg
20	54	R_L	other	upright	493.4	1	cg
20	55	L_L	self	upright	493.4	1	cg
20	56	L_R	other	upright	754.6	1	cg
20	57	L_R	other	upright	624	1	cg
20	58	L_L	other	upright	553.7	1	cg
20	59	L_R	other	upright	563.8	1	cg
20	60	R_L	self	upright	533.7	1	cg
20	61	L_L	self	upright	634.2	1	cg
20	62	R_L	other	upright	553.9	1	cg
20	63	L_L	self	upright	533.5	1	cg
20	64	R_R	other	upright	563.8	1	cg
20	65	L_R	other	upright	513.5	1	cg
20	66	L_L	other	upright	644.2	1	cg
20	67	R_L	self	upright	583.8	1	cg
20	68	L_R	other	upright	603.9	1	cg
20	69	L_R	self	upright	624.1	1	cg
20	70	L_R	other	upright	593.9	1	cg
20	71	L_L	other	upright	573.7	1	cg
20	72	L_R	other	upright	604	1	cg
20	73	L_R	self	upright	614	0	cg
20	74	R_R	self	upright	694.4	1	cg
20	75	L_L	self	upright	573.8	1	cg
20	76	R_L	self	upright	784.9	1	cg
20	77	R_L	other	upright	714.6	1	cg
20	78	R_R	self	upright	624.1	1	cg
20	79	R_R	other	upright	604.1	1	cg
20	80	R_R	other	upright	684.3	1	cg
20	81	L_R	other	inverted	774.8	1	cg
20	82	R_L	other	inverted	724.5	1	cg
20	83	L_L	other	inverted	694.5	1	cg
20	84	L_L	self	inverted	784.9	1	cg
20	85	L_R	self	inverted	835.1	1	cg
20	86	L_R	self	inverted	845.2	1	cg
20	87	L_R	self	inverted	694.8	1	cg
20	88	R_L	other	inverted	794.9	1	cg
20	89	L_R	self	inverted	694.5	1	cg
20	90	R_R	other	inverted	624.1	1	cg
20	91	R_R	self	inverted	694.4	1	cg
20	92	L_R	self	inverted	724.7	1	cg
20	93	R_L	self	inverted	644.2	1	cg
20	94	R_L	self	inverted	564.1	1	cg
20	95	R_R	other	inverted	684.4	1	cg
20	96	R_L	other	inverted	684.4	1	cg
20	97	R_R	other	inverted	523.6	1	cg
20	98	R_R	self	inverted	603.9	1	cg
20	99	L_L	other	inverted	523.5	1	cg
20	100	R_L	other	inverted	573.7	1	cg
20	101	R_R	self	inverted	845.1	1	cg
20	102	R_L	other	inverted	654.2	1	cg
20	103	L_R	self	inverted	593.9	1	cg
20	104	L_L	other	inverted	724.5	1	cg
20	105	L_R	other	inverted	614.1	1	cg
20	106	L_L	self	inverted	764.8	1	cg
20	107	R_L	self	inverted	593.8	1	cg
20	108	R_L	other	inverted	564.2	1	cg
20	109	R_L	other	inverted	785	1	cg
20	110	R_R	self	inverted	393.2	0	cg
20	111	L_L	other	inverted	734.9	1	cg
20	112	R_R	other	inverted	573.9	1	cg
20	113	L_L	self	inverted	573.9	1	cg
20	114	L_R	other	inverted	513.5	1	cg
20	115	L_L	self	inverted	764.7	1	cg
20	116	R_L	self	inverted	674.3	1	cg
20	117	L_L	self	inverted	553.7	1	cg
20	118	R_R	other	inverted	614	1	cg
20	119	L_R	self	inverted	594	1	cg
20	120	L_R	other	inverted	593.9	1	cg
20	121	R_R	self	inverted	553.7	1	cg
20	122	R_L	self	inverted	544	1	cg
20	123	L_L	other	inverted	563.8	1	cg
20	124	R_L	self	inverted	553.7	1	cg
20	125	R_L	other	inverted	533.6	1	cg
20	126	R_R	other	inverted	614.4	1	cg
20	127	L_L	self	inverted	564.1	1	cg
20	128	L_R	other	inverted	593.8	1	cg
20	129	L_L	self	inverted	704.4	1	cg
20	130	R_R	self	inverted	624.1	1	cg
20	131	R_R	self	inverted	644.5	1	cg
20	132	L_L	other	inverted	624.2	1	cg
20	133	L_R	self	inverted	533.7	1	cg
20	134	R_R	other	inverted	483.4	1	cg
20	135	L_L	other	inverted	624.5	1	cg
20	136	R_L	self	inverted	554	1	cg
20	137	L_L	other	inverted	573.9	1	cg
20	138	R_L	other	inverted	694.4	1	cg
20	139	R_R	other	inverted	593.8	1	cg
20	140	R_R	self	inverted	603.9	1	cg
20	141	R_R	self	inverted	583.9	1	cg
20	142	L_R	other	inverted	533.7	1	cg
20	143	L_L	self	inverted	614	1	cg
20	144	L_R	other	inverted	614	1	cg
20	145	L_R	other	inverted	674.3	1	cg
20	146	L_L	other	inverted	654.5	1	cg
20	147	R_L	self	inverted	573.9	1	cg
20	148	R_R	other	inverted	474	1	cg
20	149	R_L	self	inverted	644.4	1	cg
20	150	R_L	self	inverted	523.5	1	cg
20	151	L_R	other	inverted	443.3	1	cg
20	152	L_R	other	inverted	583.9	1	cg
20	153	L_L	other	inverted	593.9	1	cg
20	154	L_L	self	inverted	624.1	1	cg
20	155	L_R	self	inverted	533.6	1	cg
20	156	R_L	other	inverted	523.7	1	cg
20	157	L_R	self	inverted	604.1	1	cg
20	158	R_R	self	inverted	513.6	1	cg
20	159	L_L	self	inverted	634.1	1	cg
20	160	R_R	other	inverted	503.5	1	cg
22	1	R_R	self	upright	684.5	1	cp
22	2	L_L	other	upright	543.7	1	cp
22	3	R_L	self	upright	965.9	1	cp
22	4	R_R	self	upright	704.4	1	cp
22	5	L_R	other	upright	513.5	1	cp
22	6	L_R	other	upright	895.6	1	cp
22	7	R_R	self	upright	463.4	1	cp
22	8	R_L	self	upright	634	1	cp
22	9	L_R	other	upright	704.5	1	cp
22	10	L_R	self	upright	654.3	1	cp
22	11	R_L	other	upright	684.5	1	cp
22	12	R_R	other	upright	644.1	1	cp
22	13	L_L	self	upright	574.5	1	cp
22	14	R_L	self	upright	754.7	1	cp
22	15	L_L	other	upright	524.2	1	cp
22	16	R_R	self	upright	744.7	1	cp
22	17	R_R	other	upright	734.6	1	cp
22	18	R_R	self	upright	674.4	1	cp
22	19	R_R	self	upright	594.1	1	cp
22	20	L_L	self	upright	483.5	1	cp
22	21	R_R	other	upright	614	1	cp
22	22	L_L	other	upright	925.9	1	cp
22	23	L_L	self	upright	634.2	1	cp
22	24	L_R	other	upright	1016.2	1	cp
22	25	R_R	other	upright	674.3	1	cp
22	26	L_R	self	upright	764.7	1	cp
22	27	R_L	other	upright	543.8	1	cp
22	28	R_R	self	upright	473.3	1	cp
22	29	R_R	self	upright	674.6	1	cp
22	30	L_R	self	upright	533.7	1	cp
22	31	L_R	other	upright	523.6	1	cp
22	32	R_L	other	upright	795	1	cp
22	33	L_R	self	upright	443.1	1	cp
22	34	R_L	other	upright	573.9	1	cp
22	35	L_R	other	upright	754.8	1	cp
22	36	L_R	self	upright	875.3	1	cp
22	37	R_R	self	upright	603.9	1	cp
22	38	L_L	other	upright	724.6	1	cp
22	39	L_R	other	upright	644.2	1	cp
22	40	R_L	self	upright	523.6	1	cp
22	41	L_R	other	upright	745.3	1	cp
22	42	R_R	other	upright	885.6	1	cp
22	43	R_L	other	upright	895.5	1	cp
22	44	L_R	self	upright	754.9	1	cp
22	45	R_R	other	upright	724.6	1	cp
22	46	L_L	self	upright	433.4	1	cp
22	47	R_L	self	upright	604.4	1	cp
22	48	L_L	other	upright	664.5	1	cp
22	49	L_L	self	upright	614.1	1	cp
22	50	R_R	self	upright	644.3	1	cp
22	51	L_R	self	upright	543.5	1	cp
22	52	L_L	self	upright	543.9	1	cp
22	53	L_L	other	upright	704.7	1	cp
22	54	R_L	self	upright	895.4	1	cp
22	55	L_R	other	upright	744.9	1	cp
22	56	R_L	other	upright	674.3	1	cp
22	57	L_R	other	upright	664.1	1	cp
22	58	L_L	other	upright	533.9	1	cp
22	59	R_L	other	upright	664.2	1	cp
22	60	R_R	other	upright	845.3	1	cp
22	61	R_L	other	upright	825.5	1	cp
22	62	L_R	self	upright	523.6	1	cp
22	63	L_L	self	upright	664.3	1	cp
22	64	R_L	other	upright	624	1	cp
22	65	R_L	self	upright	905.4	1	cp
22	66	L_L	other	upright	946	1	cp
22	67	L_L	other	upright	634.1	1	cp
22	68	R_L	other	upright	724.5	1	cp
22	69	R_L	self	upright	603.9	1	cp
22	70	L_L	self	upright	684.4	1	cp
22	71	L_L	self	upright	885.3	1	cp
22	72	R_R	other	upright	905.6	1	cp
22	73	L_R	self	upright	543.9	1	cp
22	74	L_L	other	upright	503.4	1	cp
22	75	R_L	self	upright	503.9	1	cp
22	76	R_R	other	upright	755	1	cp
22	77	R_L	self	upright	825.2	1	cp
22	78	R_R	other	upright	614.2	1	cp
22	79	L_R	self	upright	925.8	1	cp
22	80	L_L	self	upright	593.9	1	cp
22	81	R_L	self	inverted	825.3	1	cp
22	82	L_L	other	inverted	945.9	1	cp
22	83	R_L	other	inverted	734.8	1	cp
22	84	R_L	self	inverted	845.4	1	cp
22	85	L_R	other	inverted	1157.2	1	cp
22	86	R_R	self	inverted	996.2	1	cp
22	87	L_L	self	inverted	754.8	1	cp
22	88	R_L	other	inverted	1116.8	1	cp
22	89	L_R	self	inverted	1176.9	1	cp
22	90	R_R	self	inverted	936	1	cp
22	91	L_L	self	inverted	1046.2	1	cp
22	92	L_L	other	inverted	995.9	1	cp
22	93	R_R	self	inverted	765.1	1	cp
22	94	R_L	self	inverted	1036.3	1	cp
22	95	L_L	other	inverted	1408.1	1	cp
22	96	L_L	other	inverted	1116.8	1	cp
22	97	R_L	other	inverted	835.2	1	cp
22	98	R_R	self	inverted	775.1	1	cp
22	99	L_R	self	inverted	1076.5	1	cp
22	100	R_L	self	inverted	815	1	cp
22	101	L_R	other	inverted	774.7	1	cp
22	102	R_R	self	inverted	986	1	cp
22	103	L_R	other	inverted	765.1	1	cp
22	104	L_R	other	inverted	784.8	1	cp
22	105	R_L	other	inverted	1216.9	1	cp
22	106	R_R	other	inverted	1196.8	1	cp
22	107	R_L	other	inverted	896	1	cp
22	108	R_R	self	inverted	634.3	1	cp
22	109	L_R	other	inverted	1026.5	1	cp
22	110	L_R	other	inverted	1137	1	cp
22	111	L_L	self	inverted	1026.3	1	cp
22	112	L_R	self	inverted	774.7	1	cp
22	113	L_L	other	inverted	734.6	1	cp
22	114	R_R	other	inverted	935.8	1	cp
22	115	R_R	other	inverted	634.5	1	cp
22	116	L_L	self	inverted	644.3	1	cp
22	117	R_L	other	inverted	865.2	1	cp
22	118	R_L	self	inverted	704.6	1	cp
22	119	R_R	self	inverted	795	1	cp
22	120	R_L	other	inverted	714.6	1	cp
22	121	L_L	other	inverted	1026.1	1	cp
22	122	R_R	self	inverted	905.5	1	cp
22	123	L_L	self	inverted	1046.3	1	cp
22	124	R_L	self	inverted	725	1	cp
22	125	L_L	self	inverted	875.5	1	cp
22	126	R_R	other	inverted	875.6	1	cp
22	127	R_L	other	inverted	774.8	1	cp
22	128	R_R	other	inverted	765	1	cp
22	129	R_R	other	inverted	805.4	1	cp
22	130	L_L	self	inverted	563.7	1	cp
22	131	R_R	self	inverted	795.1	1	cp
22	132	L_L	self	inverted	755.5	1	cp
22	133	L_R	self	inverted	624.7	1	cp
22	134	R_R	other	inverted	503.5	1	cp
22	135	L_R	self	inverted	634.1	1	cp
22	136	L_R	self	inverted	543.8	1	cp
22	137	R_L	self	inverted	534.1	1	cp
22	138	R_R	self	inverted	543.8	1	cp
22	139	R_L	self	inverted	463.3	1	cp
22	140	L_L	self	inverted	463.2	1	cp
22	141	L_R	other	inverted	664.1	1	cp
22	142	L_R	other	inverted	684.7	1	cp
22	143	L_R	other	inverted	815.5	1	cp
22	144	L_L	other	inverted	855.5	1	cp
22	145	R_R	other	inverted	1046.3	1	cp
22	146	L_L	other	inverted	825.1	1	cp
22	147	L_R	self	inverted	785.2	1	cp
22	148	R_L	self	inverted	674.5	1	cp
22	149	R_L	other	inverted	744.6	1	cp
22	150	L_R	self	inverted	594.2	1	cp
22	151	L_R	other	inverted	895.8	1	cp
22	152	L_R	self	inverted	634.1	1	cp
22	153	R_L	other	inverted	624.2	1	cp
22	154	L_L	self	inverted	553.7	1	cp
22	155	L_R	self	inverted	624.3	1	cp
22	156	R_R	other	inverted	1498.5	1	cp
22	157	R_R	other	inverted	794.9	1	cp
22	158	L_L	other	inverted	815.4	1	cp
22	159	L_L	other	inverted	775	1	cp
22	160	R_L	self	inverted	1076.3	1	cp
23	1	R_L	self	upright	714.4	1	cg
23	2	R_R	self	upright	654.1	1	cg
23	3	R_R	other	upright	473.2	0	cg
23	4	L_R	self	upright	543.6	1	cg
23	5	R_L	self	upright	533.8	1	cg
23	6	L_R	self	upright	483.4	1	cg
23	7	R_L	self	upright	523.6	1	cg
23	8	L_L	self	upright	393	1	cg
23	9	R_R	other	upright	513.5	1	cg
23	10	R_R	other	upright	523.7	1	cg
23	11	L_L	self	upright	423.6	1	cg
23	12	R_R	self	upright	493.5	1	cg
23	13	R_R	self	upright	543.8	1	cg
23	14	L_L	other	upright	764.8	1	cg
23	15	R_L	other	upright	875.2	1	cg
23	16	R_R	self	upright	443.4	1	cg
23	17	R_R	self	upright	372.8	1	cg
23	18	R_R	self	upright	432.9	1	cg
23	19	R_L	other	upright	503.5	1	cg
23	20	R_L	self	upright	463.3	1	cg
23	21	L_R	other	upright	603.8	1	cg
23	22	R_R	other	upright	593.8	1	cg
23	23	L_L	other	upright	574	1	cg
23	24	R_R	other	upright	714.5	1	cg
23	25	L_R	self	upright	513.7	1	cg
23	26	R_L	self	upright	423.4	1	cg
23	27	L_R	self	upright	393	1	cg
23	28	L_R	other	upright	513.4	1	cg
23	29	L_R	other	upright	513.6	1	cg
23	30	R_L	other	upright	473.4	1	cg
23	31	R_R	other	upright	473.2	1	cg
23	32	L_L	other	upright	624.3	1	cg
23	33	L_R	other	upright	583.8	1	cg
23	34	L_L	other	upright	503.3	1	cg
23	35	L_L	self	upright	412.8	1	cg
23	36	R_L	other	upright	654.1	1	cg
23	37	L_L	self	upright	543.7	1	cg
23	38	L_R	self	upright	543.5	1	cg
23	39	L_L	self	upright	463.4	1	cg
23	40	L_R	other	upright	553.6	1	cg
23	41	L_L	self	upright	463.2	1	cg
23	42	L_L	other	upright	634.2	1	cg
23	43	L_R	other	upright	493.4	1	cg
23	44	R_L	self	upright	463.2	1	cg
23	45	L_R	other	upright	513.4	1	cg
23	46	R_R	other	upright	664.2	1	cg
23	47	R_L	other	upright	583.8	1	cg
23	48	L_R	self	upright	493.4	1	cg
23	49	R_L	self	upright	463.3	1	cg
23	50	R_L	other	upright	493.5	1	cg
23	51	L_L	self	upright	483.4	1	cg
23	52	L_L	other	upright	513.6	1	cg
23	53	L_R	self	upright	372.9	1	cg
23	54	R_L	other	upright	594.3	1	cg
23	55	R_R	self	upright	402.9	1	cg
23	56	L_L	self	upright	483.5	1	cg
23	57	L_L	other	upright	423	0	cg
23	58	R_R	other	upright	533.5	1	cg
23	59	L_L	other	upright	624	1	cg
23	60	L_R	self	upright	503.3	1	cg
23	61	L_R	self	upright	483.3	1	cg
23	62	L_R	other	upright	845.4	1	cg
23	63	R_L	other	upright	372.8	1	cg
23	64	R_R	self	upright	503.4	1	cg
23	65	L_R	other	upright	744.6	1	cg
23	66	R_R	self	upright	463.2	1	cg
23	67	R_R	self	upright	503.7	1	cg
23	68	R_L	other	upright	563.6	1	cg
23	69	R_L	self	upright	513.6	1	cg
23	70	R_L	self	upright	443.1	1	cg
23	71	L_L	other	upright	543.6	1	cg
23	72	L_L	other	upright	634.1	1	cg
23	73	R_R	other	upright	563.7	1	cg
23	74	R_R	other	upright	513.5	1	cg
23	75	L_L	self	upright	573.8	1	cg
23	76	L_R	other	upright	533.5	1	cg
23	77	R_L	other	upright	593.8	1	cg
23	78	L_L	self	upright	342.8	1	cg
23	79	L_R	self	upright	494.1	1	cg
23	80	R_L	self	upright	383.1	1	cg
23	81	L_R	other	inverted	804.9	0	cg
23	82	L_R	self	inverted	754.5	1	cg
23	83	L_R	other	inverted	705	1	cg
23	84	R_R	self	inverted	744.7	1	cg
23	85	L_L	self	inverted	573.7	1	cg
23	86	R_R	other	inverted	794.8	1	cg
23	87	R_L	self	inverted	644	1	cg
23	88	L_L	other	inverted	593.9	1	cg
23	89	L_R	self	inverted	503.8	1	cg
23	90	R_R	other	inverted	613.9	1	cg
23	91	R_L	other	inverted	674.2	1	cg
23	92	R_L	other	inverted	493.4	1	cg
23	93	R_L	self	inverted	644.8	1	cg
23	94	L_L	self	inverted	463.2	1	cg
23	95	R_R	self	inverted	814.8	1	cg
23	96	L_L	other	inverted	554	1	cg
23	97	L_R	other	inverted	463.2	1	cg
23	98	L_L	self	inverted	382.7	1	cg
23	99	L_R	other	inverted	574.4	1	cg
23	100	L_R	self	inverted	453.1	1	cg
23	101	L_L	other	inverted	574.1	1	cg
23	102	L_R	self	inverted	533.9	1	cg
23	103	R_R	self	inverted	664.3	1	cg
23	104	L_R	self	inverted	433.2	1	cg
23	105	L_L	other	inverted	573.7	1	cg
23	106	L_L	self	inverted	493.7	1	cg
23	107	R_L	other	inverted	553.9	1	cg
23	108	R_L	self	inverted	493.4	1	cg
23	109	L_L	self	inverted	483.3	1	cg
23	110	R_L	self	inverted	343	1	cg
23	111	L_L	other	inverted	744.6	1	cg
23	112	L_R	other	inverted	724.5	1	cg
23	113	L_R	other	inverted	855.4	1	cg
23	114	R_R	other	inverted	674.8	1	cg
23	115	R_L	self	inverted	563.9	1	cg
23	116	R_L	other	inverted	754.6	1	cg
23	117	L_L	self	inverted	513.6	1	cg
23	118	L_R	self	inverted	402.9	1	cg
23	119	R_L	other	inverted	985.9	1	cg
23	120	R_R	self	inverted	503.3	1	cg
23	121	R_R	other	inverted	523.7	1	cg
23	122	L_L	self	inverted	614.2	1	cg
23	123	R_R	self	inverted	583.8	1	cg
23	124	R_L	self	inverted	664.4	1	cg
23	125	L_R	other	inverted	533.8	0	cg
23	126	R_L	other	inverted	674.3	1	cg
23	127	L_R	self	inverted	553.6	1	cg
23	128	L_L	other	inverted	634.2	1	cg
23	129	L_L	other	inverted	724.4	1	cg
23	130	R_L	other	inverted	544	1	cg
23	131	L_L	self	inverted	393	1	cg
23	132	L_R	self	inverted	423.3	1	cg
23	133	R_R	other	inverted	674.5	1	cg
23	134	L_L	other	inverted	543.5	1	cg
23	135	R_R	self	inverted	784.8	1	cg
23	136	L_R	self	inverted	433.1	1	cg
23	137	L_L	other	inverted	624.3	1	cg
23	138	R_L	other	inverted	634	1	cg
23	139	R_R	other	inverted	543.8	1	cg
23	140	L_R	other	inverted	744.6	1	cg
23	141	L_R	other	inverted	614	1	cg
23	142	R_R	other	inverted	543.6	1	cg
23	143	L_L	self	inverted	503.5	1	cg
23	144	R_L	self	inverted	372.9	1	cg
23	145	R_L	other	inverted	402.9	0	cg
23	146	L_L	other	inverted	624.4	1	cg
23	147	L_R	other	inverted	534.2	1	cg
23	148	R_L	self	inverted	493.3	1	cg
23	149	R_R	self	inverted	483.3	1	cg
23	150	R_R	self	inverted	534	1	cg
23	151	R_L	self	inverted	473.4	1	cg
23	152	R_R	self	inverted	533.7	1	cg
23	153	R_L	self	inverted	624.1	1	cg
23	154	R_R	other	inverted	604	1	cg
23	155	R_R	self	inverted	554.4	1	cg
23	156	L_L	self	inverted	503.4	1	cg
23	157	R_L	other	inverted	804.8	1	cg
23	158	L_R	self	inverted	513.5	1	cg
23	159	R_R	other	inverted	734.5	1	cg
23	160	R_R	other	inverted	734.9	0	cg
25	1	L_R	other	upright	624	1	cg
25	2	R_R	other	upright	553.8	1	cg
25	3	R_L	self	upright	543.7	1	cg
25	4	L_L	other	upright	905.5	1	cg
25	5	R_R	self	upright	604.3	1	cg
25	6	R_L	other	upright	574	1	cg
25	7	R_L	other	upright	563.9	1	cg
25	8	L_L	self	upright	554	1	cg
25	9	L_R	other	upright	553.8	1	cg
25	10	L_R	other	upright	654.8	1	cg
25	11	L_R	other	upright	634.3	1	cg
25	12	R_L	other	upright	543.8	1	cg
25	13	L_R	other	upright	553.6	1	cg
25	14	L_R	self	upright	473.5	1	cg
25	15	R_R	other	upright	604.2	1	cg
25	16	R_R	self	upright	503.7	1	cg
25	17	L_L	other	upright	503.4	1	cg
25	18	R_L	self	upright	503.9	1	cg
25	19	R_L	other	upright	503.6	1	cg
25	20	R_L	other	upright	704.6	1	cg
25	21	L_R	self	upright	443	1	cg
25	22	L_R	other	upright	553.9	1	cg
25	23	R_L	self	upright	503.5	1	cg
25	24	L_L	self	upright	503.4	1	cg
25	25	R_R	self	upright	503.6	1	cg
25	26	L_R	other	upright	523.7	1	cg
25	27	L_L	other	upright	664.2	1	cg
25	28	L_L	other	upright	533.7	1	cg
25	29	L_R	self	upright	503.7	1	cg
25	30	L_R	self	upright	453.4	1	cg
25	31	L_L	self	upright	433.3	1	cg
25	32	L_L	other	upright	594.3	1	cg
25	33	R_L	other	upright	554	1	cg
25	34	L_L	self	upright	634.3	1	cg
25	35	R_R	self	upright	483.5	1	cg
25	36	L_L	self	upright	483.5	1	cg
25	37	R_R	self	upright	463.2	1	cg
25	38	R_L	other	upright	603.9	1	cg
25	39	R_L	self	upright	433.5	1	cg
25	40	L_L	other	upright	513.6	1	cg
25	41	R_L	other	upright	443.2	1	cg
25	42	L_R	self	upright	463.5	1	cg
25	43	L_R	other	upright	493.3	1	cg
25	44	R_R	other	upright	483.4	1	cg
25	45	R_R	self	upright	513.5	1	cg
25	46	R_R	other	upright	433.1	1	cg
25	47	R_L	other	upright	513.4	1	cg
25	48	R_R	other	upright	583.8	1	cg
25	49	R_R	other	upright	473.4	1	cg
25	50	R_L	self	upright	533.8	1	cg
25	51	R_L	self	upright	433.2	1	cg
25	52	R_L	self	upright	483.4	1	cg
25	53	L_L	self	upright	503.4	1	cg
25	54	R_R	other	upright	443	1	cg
25	55	L_L	other	upright	483.4	1	cg
25	56	R_L	other	upright	382.9	1	cg
25	57	R_R	self	upright	412.9	1	cg
25	58	L_R	other	upright	443.2	1	cg
25	59	L_L	self	upright	473.4	1	cg
25	60	L_L	self	upright	413.1	1	cg
25	61	R_R	self	upright	402.9	1	cg
25	62	R_R	other	upright	503.5	1	cg
25	63	L_R	other	upright	372.7	1	cg
25	64	L_R	self	upright	423.1	1	cg
25	65	R_R	self	upright	412.9	1	cg
25	66	R_L	self	upright	423.1	1	cg
25	67	L_L	other	upright	513.5	1	cg
25	68	L_L	other	upright	523.5	1	cg
25	69	L_L	self	upright	453.2	1	cg
25	70	L_R	self	upright	443.1	1	cg
25	71	L_L	other	upright	483.2	1	cg
25	72	L_R	self	upright	402.9	1	cg
25	73	L_R	self	upright	382.8	1	cg
25	74	L_R	self	upright	373	1	cg
25	75	R_R	self	upright	423	1	cg
25	76	L_L	self	upright	433.1	1	cg
25	77	R_R	other	upright	402.9	1	cg
25	78	R_L	self	upright	423.1	1	cg
25	79	R_L	self	upright	382.9	1	cg
25	80	R_R	other	upright	463.3	1	cg
25	81	L_R	self	inverted	714.6	1	cg
25	82	R_L	self	inverted	553.7	1	cg
25	83	R_R	other	inverted	553.8	1	cg
25	84	R_L	other	inverted	604.2	1	cg
25	85	L_R	other	inverted	563.8	1	cg
25	86	R_L	other	inverted	573.8	1	cg
25	87	L_L	self	inverted	563.9	1	cg
25	88	L_L	other	inverted	704.3	0	cg
25	89	R_R	other	inverted	533.7	1	cg
25	90	R_L	self	inverted	614.4	0	cg
25	91	R_R	self	inverted	624	0	cg
25	92	R_R	self	inverted	503.4	1	cg
25	93	L_R	self	inverted	835.1	1	cg
25	94	L_R	other	inverted	785	1	cg
25	95	L_R	other	inverted	1016	1	cg
25	96	L_R	self	inverted	654.2	1	cg
25	97	L_L	self	inverted	603.9	0	cg
25	98	L_R	self	inverted	775.1	0	cg
25	99	R_R	self	inverted	664.2	0	cg
25	100	R_L	other	inverted	644.1	0	cg
25	101	R_L	other	inverted	583.8	1	cg
25	102	L_R	other	inverted	493.4	1	cg
25	103	L_R	other	inverted	644.2	1	cg
25	104	R_L	other	inverted	634.1	1	cg
25	105	L_L	self	inverted	483.3	0	cg
25	106	R_R	self	inverted	634.1	1	cg
25	107	R_R	self	inverted	533.6	1	cg
25	108	R_L	self	inverted	604	1	cg
25	109	R_L	self	inverted	453.2	0	cg
25	110	R_L	other	inverted	453.3	1	cg
25	111	R_R	other	inverted	483.4	0	cg
25	112	R_R	other	inverted	583.8	1	cg
25	113	L_R	other	inverted	613.9	1	cg
25	114	L_L	other	inverted	513.5	1	cg
25	115	R_R	other	inverted	543.7	1	cg
25	116	R_R	other	inverted	453.2	1	cg
25	117	L_R	self	inverted	624	1	cg
25	118	L_L	self	inverted	865.1	1	cg
25	119	R_L	self	inverted	453.2	1	cg
25	120	R_R	self	inverted	573.8	1	cg
25	121	L_L	other	inverted	382.8	0	cg
25	122	L_L	self	inverted	403	1	cg
25	123	L_L	self	inverted	493.6	1	cg
25	124	L_L	other	inverted	483.4	0	cg
25	125	L_L	other	inverted	835.1	1	cg
25	126	R_L	self	inverted	553.8	1	cg
25	127	L_R	self	inverted	704.8	1	cg
25	128	L_L	other	inverted	654.2	1	cg
25	129	R_L	self	inverted	543.7	1	cg
25	130	R_L	other	inverted	553.7	1	cg
25	131	L_L	self	inverted	654.3	0	cg
25	132	R_R	self	inverted	573.9	1	cg
25	133	L_L	self	inverted	624	0	cg
25	134	L_R	self	inverted	543.6	1	cg
25	135	L_L	other	inverted	573.9	1	cg
25	136	L_R	self	inverted	493.3	1	cg
25	137	R_R	self	inverted	543.7	1	cg
25	138	R_L	self	inverted	754.7	1	cg
25	139	L_R	other	inverted	573.7	1	cg
25	140	R_L	other	inverted	684.4	0	cg
25	141	L_R	other	inverted	644.2	1	cg
25	142	L_R	other	inverted	613.9	1	cg
25	143	L_L	other	inverted	614	1	cg
25	144	R_R	other	inverted	593.9	1	cg
25	145	R_R	self	inverted	543.6	1	cg
25	146	L_R	other	inverted	533.9	1	cg
25	147	R_R	other	inverted	493.6	1	cg
25	148	L_L	self	inverted	553.8	0	cg
25	149	R_L	other	inverted	613.9	1	cg
25	150	R_R	self	inverted	624	1	cg
25	151	L_L	self	inverted	483.9	1	cg
25	152	R_R	other	inverted	563.7	0	cg
25	153	R_R	other	inverted	714.6	1	cg
25	154	L_R	self	inverted	714.5	1	cg
25	155	L_R	self	inverted	523.6	1	cg
25	156	R_L	self	inverted	473.3	1	cg
25	157	L_L	other	inverted	563.8	0	cg
25	158	L_L	other	inverted	764.7	1	cg
25	159	R_L	other	inverted	614	1	cg
25	160	R_L	self	inverted	594.1	1	cg
26	1	R_L	self	upright	784.7	0	cg
26	2	R_R	self	upright	634.2	0	cg
26	3	R_L	self	upright	362.7	1	cg
26	4	L_R	self	upright	402.9	0	cg
26	5	R_R	self	upright	694.3	0	cg
26	6	L_R	self	upright	835.2	0	cg
26	7	R_L	other	upright	433.3	0	cg
26	8	L_L	self	upright	654.3	1	cg
26	9	R_R	other	upright	593.8	1	cg
26	10	L_L	other	upright	513.7	1	cg
26	11	R_R	other	upright	443.2	1	cg
26	12	R_L	self	upright	403	0	cg
26	13	L_R	self	upright	644	1	cg
26	14	R_L	self	upright	503.4	0	cg
26	15	R_R	self	upright	483.2	1	cg
26	16	R_R	self	upright	543.5	1	cg
26	17	L_L	other	upright	915.4	1	cg
26	18	R_L	other	upright	634.1	1	cg
26	19	L_L	other	upright	794.7	1	cg
26	20	R_R	other	upright	674.2	1	cg
26	21	L_R	self	upright	714.4	1	cg
26	22	R_R	self	upright	915.7	1	cg
26	23	L_R	self	upright	845	1	cg
26	24	L_L	other	upright	825.2	1	cg
26	25	L_R	self	upright	624.1	1	cg
26	26	L_L	self	upright	634.1	1	cg
26	27	L_L	self	upright	554	1	cg
26	28	R_R	other	upright	603.9	1	cg
26	29	R_R	other	upright	634.1	1	cg
26	30	L_R	self	upright	885.3	1	cg
26	31	L_L	self	upright	704.5	1	cg
26	32	L_L	other	upright	583.9	1	cg
26	33	R_R	self	upright	825	1	cg
26	34	L_L	self	upright	724.5	1	cg
26	35	L_L	other	upright	804.9	1	cg
26	36	L_R	other	upright	714.7	1	cg
26	37	R_L	self	upright	624	1	cg
26	38	L_L	self	upright	815	1	cg
26	39	L_R	self	upright	614.1	1	cg
26	40	R_L	self	upright	734.5	1	cg
26	41	R_R	other	upright	684.4	1	cg
26	42	R_R	self	upright	865.2	1	cg
26	43	L_L	other	upright	835	1	cg
26	44	R_R	other	upright	543.7	1	cg
26	45	L_L	other	upright	674.4	1	cg
26	46	R_R	self	upright	845.3	1	cg
26	47	L_R	self	upright	634.1	1	cg
26	48	L_R	other	upright	644.2	0	cg
26	49	L_L	self	upright	834.9	1	cg
26	50	L_R	other	upright	644.3	1	cg
26	51	L_R	other	upright	613.9	1	cg
26	52	L_R	other	upright	613.9	1	cg
26	53	L_L	other	upright	553.7	1	cg
26	54	R_L	self	upright	573.8	1	cg
26	55	R_L	other	upright	604	0	cg
26	56	R_R	self	upright	764.7	1	cg
26	57	R_L	other	upright	664.3	1	cg
26	58	L_L	other	upright	604.5	1	cg
26	59	R_L	self	upright	734.5	1	cg
26	60	R_L	other	upright	614.1	1	cg
26	61	R_L	other	upright	553.8	1	cg
26	62	L_L	self	upright	744.9	1	cg
26	63	R_L	other	upright	583.8	1	cg
26	64	L_L	self	upright	644.1	1	cg
26	65	R_L	other	upright	553.7	1	cg
26	66	R_L	other	upright	583.9	1	cg
26	67	L_R	other	upright	634	1	cg
26	68	L_R	self	upright	664.4	1	cg
26	69	L_R	other	upright	784.8	1	cg
26	70	R_R	other	upright	734.7	1	cg
26	71	R_R	self	upright	1096.4	1	cg
26	72	R_L	self	upright	905.6	1	cg
26	73	L_R	other	upright	624	1	cg
26	74	L_L	self	upright	714.4	1	cg
26	75	R_R	other	upright	634	1	cg
26	76	R_L	self	upright	603.8	1	cg
26	77	R_L	other	upright	564	1	cg
26	78	R_R	other	upright	583.8	1	cg
26	79	L_R	other	upright	533.6	1	cg
26	80	L_R	other	upright	533.5	1	cg
26	81	L_R	self	inverted	965.7	1	cg
26	82	L_R	self	inverted	1106.3	0	cg
26	83	L_L	other	inverted	714.6	1	cg
26	84	R_L	other	inverted	945.6	0	cg
26	85	L_R	other	inverted	1076.5	1	cg
26	86	L_R	other	inverted	624.1	1	cg
26	87	L_L	other	inverted	1116.8	1	cg
26	88	L_L	other	inverted	1186.8	1	cg
26	89	R_L	other	inverted	915.6	1	cg
26	90	L_L	self	inverted	1347.9	1	cg
26	91	L_L	self	inverted	1277.4	0	cg
26	92	L_L	other	inverted	1257.4	0	cg
26	93	R_R	self	inverted	1116.8	1	cg
26	94	L_L	other	inverted	895.5	1	cg
26	95	R_R	other	inverted	614.2	0	cg
26	96	L_L	self	inverted	1116.5	1	cg
26	97	R_R	other	inverted	784.8	1	cg
26	98	L_R	self	inverted	875.2	1	cg
26	99	L_R	other	inverted	754.8	1	cg
26	100	R_R	self	inverted	1015.9	1	cg
26	101	L_R	other	inverted	744.6	1	cg
26	102	R_R	other	inverted	1086.3	1	cg
26	103	L_R	self	inverted	844.9	1	cg
26	104	L_L	self	inverted	875.1	0	cg
26	105	L_R	other	inverted	765	1	cg
26	106	R_R	self	inverted	975.7	1	cg
26	107	L_L	other	inverted	815.2	1	cg
26	108	R_R	other	inverted	1036	1	cg
26	109	R_L	self	inverted	976	1	cg
26	110	R_R	other	inverted	845.2	1	cg
26	111	L_L	other	inverted	704.8	1	cg
26	112	R_L	self	inverted	764.8	1	cg
26	113	R_L	self	inverted	1026.2	0	cg
26	114	R_L	other	inverted	1146.5	1	cg
26	115	R_R	other	inverted	955.9	1	cg
26	116	R_R	self	inverted	1297.2	0	cg
26	117	L_L	other	inverted	1186.9	1	cg
26	118	L_R	other	inverted	785.1	1	cg
26	119	L_L	self	inverted	1167.2	1	cg
26	120	L_R	self	inverted	744.6	1	cg
26	121	R_L	other	inverted	744.6	0	cg
26	122	R_L	other	inverted	995.6	1	cg
26	123	L_L	other	inverted	814.9	1	cg
26	124	R_L	other	inverted	674.5	1	cg
26	125	R_L	self	inverted	825	1	cg
26	126	L_L	self	inverted	885.2	1	cg
26	127	R_R	self	inverted	1196.7	1	cg
26	128	R_R	other	inverted	734.7	1	cg
26	129	R_L	self	inverted	674.3	1	cg
26	130	R_L	other	inverted	865.4	1	cg
26	131	L_R	self	inverted	734.8	1	cg
26	132	L_R	other	inverted	553.7	1	cg
26	133	R_L	self	inverted	1006	1	cg
26	134	L_R	self	inverted	865.2	1	cg
26	135	L_R	other	inverted	835.3	1	cg
26	136	L_R	self	inverted	794.9	1	cg
26	137	L_L	self	inverted	895.2	1	cg
26	138	L_L	self	inverted	1448	1	cg
26	139	L_L	other	inverted	1146.6	1	cg
26	140	R_L	self	inverted	694.7	1	cg
26	141	L_R	other	inverted	674.3	1	cg
26	142	L_R	self	inverted	714.4	1	cg
26	143	L_R	other	inverted	784.9	1	cg
26	144	R_R	self	inverted	916	0	cg
26	145	R_L	other	inverted	925.5	1	cg
26	146	R_L	self	inverted	865.2	1	cg
26	147	R_R	self	inverted	905.6	1	cg
26	148	R_L	other	inverted	1217.2	1	cg
26	149	L_L	self	inverted	714.5	1	cg
26	150	R_R	other	inverted	664.4	1	cg
26	151	R_L	self	inverted	774.7	1	cg
26	152	R_R	self	inverted	814.9	1	cg
26	153	R_R	other	inverted	674.3	1	cg
26	154	L_L	self	inverted	875.9	1	cg
26	155	R_R	other	inverted	634	1	cg
27	1	R_R	self	upright	724.5	1	cg
27	2	L_L	self	upright	784.9	1	cg
27	3	R_L	self	upright	593.9	1	cg
27	4	L_R	self	upright	764.8	1	cg
27	5	R_R	other	upright	674.3	1	cg
27	6	L_R	self	upright	654.2	1	cg
27	7	R_L	self	upright	583.9	1	cg
27	8	R_R	self	upright	583.9	1	cg
27	9	L_R	other	upright	644.1	1	cg
27	10	R_L	other	upright	664.3	1	cg
27	11	R_L	other	upright	694.5	1	cg
27	12	L_L	other	upright	573.8	1	cg
27	13	R_L	self	upright	603.9	1	cg
27	14	L_L	other	upright	674.4	1	cg
27	15	R_L	self	upright	583.9	1	cg
27	16	R_R	other	upright	553.7	1	cg
27	17	L_L	other	upright	774.7	1	cg
27	18	R_L	self	upright	483.4	1	cg
27	19	L_R	self	upright	664.2	1	cg
27	20	R_L	self	upright	634.1	1	cg
27	21	R_R	other	upright	684.3	1	cg
27	22	R_R	self	upright	614	1	cg
27	23	L_L	other	upright	594	1	cg
27	24	R_L	other	upright	623.9	1	cg
27	25	L_R	other	upright	654.1	1	cg
27	26	R_L	self	upright	583.8	1	cg
27	27	R_R	self	upright	744.8	1	cg
27	28	L_L	other	upright	583.7	1	cg
27	29	L_R	other	upright	634.1	1	cg
27	30	R_L	other	upright	654.1	1	cg
27	31	R_R	other	upright	604	1	cg
27	32	R_R	other	upright	614	1	cg
27	33	L_R	self	upright	503.4	1	cg
27	34	R_R	self	upright	674.5	1	cg
27	35	R_R	other	upright	604.1	1	cg
27	36	R_R	self	upright	583.8	1	cg
27	37	L_L	self	upright	583.8	1	cg
27	38	L_L	self	upright	513.5	1	cg
27	39	L_L	other	upright	573.9	1	cg
27	40	R_L	other	upright	835.2	1	cg
27	41	L_L	self	upright	543.9	1	cg
27	42	R_L	other	upright	533.6	1	cg
27	43	R_R	self	upright	493.5	1	cg
27	44	L_R	self	upright	644.1	1	cg
27	45	L_L	self	upright	593.9	1	cg
27	46	R_L	other	upright	744.6	1	cg
27	47	L_L	other	upright	664.2	1	cg
27	48	L_L	other	upright	583.8	1	cg
27	49	L_L	self	upright	543.7	1	cg
27	50	R_R	other	upright	583.8	1	cg
27	51	L_R	self	upright	553.7	1	cg
27	52	L_L	other	upright	523.5	1	cg
27	53	L_R	self	upright	593.9	1	cg
27	54	L_L	self	upright	513.5	1	cg
27	55	R_L	self	upright	593.9	1	cg
27	56	R_R	self	upright	593.8	1	cg
27	57	L_L	self	upright	513.6	1	cg
27	58	R_L	other	upright	533.6	1	cg
27	59	L_R	other	upright	533.5	1	cg
27	60	L_R	other	upright	654.2	1	cg
27	61	L_L	self	upright	623.9	1	cg
27	62	L_R	self	upright	563.8	1	cg
27	63	L_R	self	upright	503.4	1	cg
27	64	L_R	other	upright	503.4	1	cg
27	65	L_R	other	upright	704.5	1	cg
27	66	L_L	self	upright	795.2	1	cg
27	67	L_L	other	upright	553.6	1	cg
27	68	L_R	other	upright	543.6	1	cg
27	69	R_R	other	upright	664.2	1	cg
27	70	R_L	other	upright	614	1	cg
27	71	R_L	self	upright	624	1	cg
27	72	L_R	other	upright	664.3	1	cg
27	73	R_R	other	upright	905.4	1	cg
27	74	R_L	self	upright	634.3	1	cg
27	75	R_R	self	upright	664.3	1	cg
27	76	L_R	self	upright	583.9	1	cg
27	77	R_R	other	upright	613.9	1	cg
27	78	L_R	other	upright	804.9	1	cg
27	79	R_L	other	upright	724.5	1	cg
27	80	R_R	self	upright	553.7	1	cg
27	81	R_L	self	inverted	774.7	1	cg
27	82	L_L	self	inverted	935.4	1	cg
27	83	R_L	self	inverted	935.6	1	cg
27	84	L_R	other	inverted	865.2	1	cg
27	85	L_L	self	inverted	945.5	1	cg
27	86	L_L	self	inverted	845.1	1	cg
27	87	R_R	other	inverted	824.9	1	cg
27	88	R_L	other	inverted	875.2	0	cg
27	89	L_L	self	inverted	724.6	1	cg
27	90	R_R	self	inverted	965.7	1	cg
27	91	R_L	self	inverted	573.8	1	cg
27	92	L_L	self	inverted	684.5	1	cg
27	93	R_L	self	inverted	855.2	1	cg
27	94	L_R	other	inverted	905.5	1	cg
27	95	R_L	other	inverted	935.7	1	cg
27	96	R_R	other	inverted	794.8	1	cg
27	97	R_L	self	inverted	704.4	1	cg
27	98	R_L	other	inverted	694.5	1	cg
27	99	R_R	self	inverted	684.3	0	cg
27	100	R_R	other	inverted	985.8	0	cg
27	101	R_R	other	inverted	845.1	1	cg
27	102	R_R	self	inverted	805.1	1	cg
27	103	R_R	self	inverted	825	1	cg
27	104	L_L	other	inverted	855.1	1	cg
27	105	R_L	self	inverted	925.6	1	cg
27	106	L_L	other	inverted	664.2	0	cg
27	107	R_L	other	inverted	1196.9	1	cg
27	108	L_R	self	inverted	644.1	1	cg
27	109	L_R	other	inverted	744.5	1	cg
27	110	L_R	self	inverted	845.1	1	cg
27	111	R_L	self	inverted	855.8	1	cg
27	112	L_L	self	inverted	1176.8	1	cg
27	113	L_R	self	inverted	624	1	cg
27	114	R_R	other	inverted	704.4	1	cg
27	115	L_R	other	inverted	744.7	1	cg
27	116	R_R	other	inverted	965.6	1	cg
27	117	R_R	other	inverted	784.7	1	cg
27	118	L_L	other	inverted	704.4	1	cg
27	119	L_R	other	inverted	1046	1	cg
27	120	L_R	self	inverted	664.4	1	cg
27	121	L_L	other	inverted	664.3	1	cg
27	122	L_L	other	inverted	644.2	0	cg
27	123	R_L	self	inverted	654.2	1	cg
27	124	L_R	other	inverted	895.5	1	cg
27	125	R_R	self	inverted	885.2	1	cg
27	126	L_R	self	inverted	744.7	1	cg
27	127	R_L	other	inverted	875.3	1	cg
27	128	L_L	other	inverted	724.5	1	cg
27	129	L_L	other	inverted	664.3	1	cg
27	130	R_L	other	inverted	915.8	1	cg
27	131	L_R	other	inverted	825.1	0	cg
27	132	L_L	self	inverted	734.6	1	cg
27	133	R_L	self	inverted	965.7	1	cg
27	134	L_L	self	inverted	634.1	1	cg
27	135	R_R	self	inverted	754.7	1	cg
27	136	L_R	self	inverted	694.4	1	cg
27	137	R_L	self	inverted	764.7	1	cg
27	138	R_L	other	inverted	704.4	1	cg
27	139	R_L	other	inverted	825	1	cg
27	140	R_R	other	inverted	714.5	1	cg
27	141	R_L	other	inverted	865.1	1	cg
27	142	R_L	other	inverted	744.7	1	cg
27	143	L_L	other	inverted	714.4	1	cg
27	144	R_R	self	inverted	684.6	1	cg
27	145	L_R	self	inverted	614.2	1	cg
27	146	L_R	other	inverted	714.6	1	cg
27	147	L_R	other	inverted	825	1	cg
27	148	L_R	self	inverted	794.9	1	cg
27	149	L_R	self	inverted	704.4	1	cg
27	150	L_L	other	inverted	674.2	1	cg
27	151	R_R	other	inverted	664.3	1	cg
27	152	R_R	other	inverted	784.8	1	cg
27	153	L_L	other	inverted	644.2	1	cg
27	154	R_R	self	inverted	674.4	1	cg
27	155	L_R	self	inverted	694.4	1	cg
27	156	L_L	self	inverted	804.9	1	cg
27	157	L_R	other	inverted	603.9	1	cg
27	158	L_L	self	inverted	714.5	1	cg
27	159	R_R	self	inverted	764.9	1	cg
27	160	R_R	self	inverted	594	1	cg
28	1	L_L	other	upright	443.1	0	cg
28	2	L_R	other	upright	614.3	1	cg
28	3	L_L	other	upright	744.5	1	cg
28	4	L_R	self	upright	614.3	1	cg
28	5	R_L	other	upright	654.3	1	cg
28	6	R_L	other	upright	634	1	cg
28	7	L_L	other	upright	704.5	1	cg
28	8	L_R	self	upright	764.7	1	cg
28	9	R_R	other	upright	443.1	0	cg
28	10	R_R	other	upright	654.6	1	cg
28	11	R_R	self	upright	644.3	1	cg
28	12	R_R	other	upright	604.6	1	cg
28	13	R_L	self	upright	674.3	1	cg
28	14	L_L	self	upright	544	1	cg
28	15	R_L	self	upright	644.1	1	cg
28	16	L_R	other	upright	614	1	cg
28	17	R_L	self	upright	694.6	1	cg
28	18	R_R	other	upright	533.8	1	cg
28	19	L_R	self	upright	593.9	1	cg
28	20	R_R	self	upright	644.1	1	cg
28	21	R_L	other	upright	814.9	1	cg
28	22	R_L	self	upright	845	1	cg
28	23	L_L	other	upright	604.3	1	cg
28	24	R_L	self	upright	624.2	1	cg
28	25	L_R	self	upright	573.9	1	cg
28	26	L_L	self	upright	614.1	1	cg
28	27	L_R	other	upright	714.5	1	cg
28	28	L_R	other	upright	845.1	1	cg
28	29	R_R	other	upright	784.8	1	cg
28	30	L_L	other	upright	634.1	1	cg
28	31	R_L	other	upright	925.3	1	cg
28	32	L_L	self	upright	614.2	1	cg
28	33	R_R	self	upright	563.6	1	cg
28	34	R_R	self	upright	654.3	1	cg
28	35	L_R	self	upright	694.8	1	cg
28	36	R_L	self	upright	624.1	1	cg
28	37	L_L	other	upright	654.3	1	cg
28	38	R_R	other	upright	624	1	cg
28	39	R_L	self	upright	674.5	1	cg
28	40	R_R	self	upright	674.7	1	cg
28	41	R_R	other	upright	674.6	1	cg
28	42	L_L	other	upright	744.6	1	cg
28	43	L_L	self	upright	583.9	1	cg
28	44	R_L	other	upright	603.9	1	cg
28	45	L_L	self	upright	563.7	1	cg
28	46	L_R	other	upright	613.9	1	cg
28	47	R_R	self	upright	603.9	1	cg
28	48	L_L	other	upright	684.3	1	cg
28	49	R_R	other	upright	704.5	1	cg
28	50	L_R	other	upright	573.8	1	cg
28	51	L_L	other	upright	604.1	1	cg
28	52	L_R	self	upright	583.9	1	cg
28	53	R_R	self	upright	544.1	1	cg
28	54	R_L	self	upright	473.4	1	cg
28	55	R_L	self	upright	453.2	1	cg
28	56	R_R	other	upright	744.6	1	cg
28	57	L_R	self	upright	604	1	cg
28	58	R_L	other	upright	704.4	1	cg
28	59	L_L	self	upright	463.4	1	cg
28	60	L_L	other	upright	634.2	1	cg
28	61	R_R	self	upright	654.1	1	cg
28	62	L_R	other	upright	573.9	1	cg
28	63	L_R	self	upright	523.5	1	cg
28	64	R_L	self	upright	564	1	cg
28	65	R_R	self	upright	473.3	1	cg
28	66	L_R	other	upright	523.4	1	cg
28	67	L_R	self	upright	433.1	1	cg
28	68	L_L	self	upright	423.2	1	cg
28	69	L_L	self	upright	584	1	cg
28	70	R_R	other	upright	533.7	1	cg
28	71	L_R	other	upright	634.1	1	cg
28	72	L_R	other	upright	634.2	1	cg
28	73	R_R	self	upright	614.1	1	cg
28	74	L_L	self	upright	603.8	1	cg
28	75	R_L	other	upright	865.1	1	cg
28	76	R_L	other	upright	725.2	1	cg
28	77	R_L	other	upright	704.4	1	cg
28	78	L_R	self	upright	664.3	1	cg
28	79	L_L	self	upright	583.7	1	cg
28	80	R_L	other	upright	724.8	1	cg
28	81	R_L	other	inverted	684.8	0	cg
28	82	L_R	self	inverted	764.7	1	cg
28	83	R_L	self	inverted	593.9	1	cg
28	84	R_R	self	inverted	835	0	cg
28	85	R_R	other	inverted	805.1	1	cg
28	86	L_L	self	inverted	794.8	1	cg
28	87	L_R	other	inverted	795	1	cg
28	88	R_R	self	inverted	1146.6	1	cg
28	89	R_L	self	inverted	674.6	1	cg
28	90	R_R	self	inverted	744.7	0	cg
28	91	R_L	other	inverted	804.9	1	cg
28	92	L_R	other	inverted	684.6	1	cg
28	93	L_L	self	inverted	704.5	1	cg
28	94	R_L	other	inverted	704.9	1	cg
28	95	L_L	other	inverted	805	1	cg
28	96	L_R	other	inverted	664.2	1	cg
28	97	R_L	self	inverted	613.9	1	cg
28	98	L_R	other	inverted	704.4	1	cg
28	99	L_L	other	inverted	694.3	1	cg
28	100	R_L	other	inverted	674.3	1	cg
28	101	L_R	other	inverted	745.2	1	cg
28	102	L_R	other	inverted	724.7	1	cg
28	103	R_R	self	inverted	674.4	1	cg
28	104	L_L	self	inverted	563.7	1	cg
28	105	L_L	other	inverted	1006.6	1	cg
28	106	R_R	other	inverted	794.7	1	cg
28	107	L_R	other	inverted	1006	1	cg
28	108	L_R	self	inverted	744.7	0	cg
28	109	R_L	other	inverted	684.2	1	cg
28	110	R_R	self	inverted	583.8	0	cg
28	111	L_L	self	inverted	664.2	1	cg
28	112	R_L	other	inverted	654.3	1	cg
28	113	L_L	other	inverted	533.5	1	cg
28	114	L_R	self	inverted	905.7	1	cg
28	115	R_L	self	inverted	734.6	1	cg
28	116	R_R	self	inverted	824.9	1	cg
28	117	R_R	other	inverted	623.9	1	cg
28	118	R_R	self	inverted	634.6	1	cg
28	119	R_R	self	inverted	433	1	cg
28	120	R_R	other	inverted	473.7	0	cg
28	121	L_R	self	inverted	684.5	0	cg
28	122	R_L	self	inverted	704.4	1	cg
28	123	L_L	other	inverted	775	1	cg
28	124	L_R	self	inverted	443.4	1	cg
28	125	R_R	other	inverted	613.9	1	cg
28	126	R_R	other	inverted	563.6	1	cg
28	127	R_L	self	inverted	613.9	1	cg
28	128	R_L	self	inverted	815.4	0	cg
28	129	R_L	self	inverted	1056.1	1	cg
28	130	L_R	self	inverted	925.7	1	cg
28	131	L_R	self	inverted	513.4	1	cg
28	132	L_L	other	inverted	684.5	1	cg
28	133	R_R	other	inverted	694.5	1	cg
28	134	L_L	self	inverted	584.1	1	cg
28	135	R_R	self	inverted	563.7	1	cg
28	136	L_R	self	inverted	704.3	1	cg
28	137	L_R	other	inverted	754.8	1	cg
28	138	R_L	other	inverted	674.5	1	cg
28	139	L_L	other	inverted	523.4	1	cg
28	140	R_R	other	inverted	493.7	1	cg
28	141	L_L	other	inverted	483.3	1	cg
28	142	L_L	self	inverted	563.7	1	cg
28	143	L_L	self	inverted	563.9	1	cg
28	144	L_L	self	inverted	593.9	1	cg
28	145	L_L	other	inverted	644.1	1	cg
28	146	R_L	self	inverted	463.4	0	cg
28	147	R_L	self	inverted	855.3	1	cg
28	148	R_L	other	inverted	734.6	1	cg
28	149	L_R	other	inverted	634.2	1	cg
28	150	L_R	self	inverted	775.1	1	cg
28	151	L_L	self	inverted	523.6	1	cg
28	152	L_L	self	inverted	533.7	1	cg
28	153	R_R	other	inverted	684.3	1	cg
28	154	L_L	other	inverted	614	1	cg
28	155	L_R	other	inverted	634	1	cg
28	156	L_R	self	inverted	503.4	1	cg
28	157	R_L	other	inverted	654.3	1	cg
28	158	R_R	self	inverted	593.7	1	cg
28	159	R_R	other	inverted	574.7	1	cg
28	160	R_L	other	inverted	784.8	1	cg
30	1	R_R	self	upright	633.9	1	cg
30	2	R_L	other	upright	554.2	1	cg
30	3	L_L	self	upright	483.4	1	cg
30	4	R_R	self	upright	583.7	1	cg
30	5	R_L	self	upright	443.1	1	cg
30	6	R_R	other	upright	534	1	cg
30	7	R_L	self	upright	624.6	1	cg
30	8	R_L	other	upright	573.7	1	cg
30	9	L_L	self	upright	533.5	1	cg
30	10	L_L	other	upright	594.2	1	cg
30	11	R_L	self	upright	573.7	1	cg
30	12	R_L	other	upright	664.2	1	cg
30	13	R_L	other	upright	584	1	cg
30	14	R_L	other	upright	543.8	1	cg
30	15	R_R	self	upright	473.2	1	cg
30	16	R_L	self	upright	473.5	1	cg
30	17	R_L	self	upright	564.1	1	cg
30	18	L_R	other	upright	624.2	1	cg
30	19	L_L	other	upright	644.3	1	cg
30	20	L_R	other	upright	503.8	1	cg
30	21	L_R	self	upright	523.5	1	cg
30	22	R_R	other	upright	774.9	1	cg
30	23	L_R	self	upright	473.2	1	cg
30	24	L_L	self	upright	473.4	1	cg
30	25	L_L	self	upright	513.6	1	cg
30	26	L_L	other	upright	463.2	1	cg
30	27	R_R	other	upright	443.4	1	cg
30	28	R_L	other	upright	523.5	1	cg
30	29	L_L	self	upright	523.5	1	cg
30	30	L_L	other	upright	473.2	1	cg
30	31	L_L	other	upright	583.8	1	cg
30	32	R_L	self	upright	483.3	1	cg
30	33	L_R	self	upright	513.4	1	cg
30	34	L_L	other	upright	513.4	1	cg
30	35	L_R	other	upright	543.6	1	cg
30	36	R_R	other	upright	583.9	1	cg
30	37	L_R	other	upright	463.6	1	cg
30	38	L_R	other	upright	593.8	1	cg
30	39	R_R	other	upright	443.4	1	cg
30	40	R_R	other	upright	473.3	1	cg
30	41	L_R	self	upright	574	1	cg
30	42	R_R	other	upright	433.2	1	cg
30	43	L_R	self	upright	503.3	1	cg
30	44	R_L	self	upright	463.3	1	cg
30	45	R_L	self	upright	493.6	1	cg
30	46	R_L	self	upright	473.4	1	cg
30	47	R_L	other	upright	493.4	1	cg
30	48	L_L	other	upright	443.3	1	cg
30	49	L_R	self	upright	453.6	1	cg
30	50	R_R	self	upright	473.3	1	cg
30	51	R_R	self	upright	443.2	1	cg
30	52	L_R	self	upright	533.7	1	cg
30	53	L_L	other	upright	604.4	1	cg
30	54	R_R	self	upright	503.4	1	cg
30	55	L_L	self	upright	543.7	1	cg
30	56	L_R	self	upright	654.3	1	cg
30	57	L_R	other	upright	553.8	1	cg
30	58	L_R	self	upright	463.4	1	cg
30	59	R_L	self	upright	423.1	0	cg
30	60	L_L	self	upright	402.9	0	cg
30	61	L_R	other	upright	614	1	cg
30	62	R_R	self	upright	563.8	1	cg
30	63	L_R	other	upright	543.9	1	cg
30	64	R_R	self	upright	523.5	1	cg
30	65	L_L	self	upright	553.7	1	cg
30	66	R_L	other	upright	574.3	1	cg
30	67	R_L	other	upright	684.5	1	cg
30	68	R_R	self	upright	583.9	1	cg
30	69	R_R	other	upright	483.2	1	cg
30	70	L_L	other	upright	473.2	1	cg
30	71	L_L	other	upright	503.6	1	cg
30	72	R_R	other	upright	573.9	0	cg
30	73	L_R	other	upright	584.2	1	cg
30	74	L_L	self	upright	513.5	1	cg
30	75	L_R	self	upright	544	1	cg
30	76	R_L	other	upright	855.3	1	cg
30	77	R_R	self	upright	504	1	cg
30	78	L_L	self	upright	533.5	1	cg
30	79	R_R	other	upright	584	1	cg
30	80	L_R	other	upright	513.7	1	cg
30	81	L_L	self	inverted	604.3	0	cg
30	82	L_R	other	inverted	624.1	0	cg
30	83	R_R	self	inverted	694.5	1	cg
30	84	L_R	self	inverted	564.2	0	cg
30	85	R_R	self	inverted	625.1	1	cg
30	86	R_R	self	inverted	684.3	1	cg
30	87	R_R	other	inverted	533.6	1	cg
30	88	R_R	self	inverted	473.3	1	cg
30	89	L_R	other	inverted	453.3	1	cg
30	90	L_L	other	inverted	664.1	1	cg
30	91	R_L	self	inverted	563.9	1	cg
30	92	L_L	other	inverted	594	1	cg
30	93	L_L	self	inverted	574.2	1	cg
30	94	L_L	self	inverted	583.8	1	cg
30	95	R_R	self	inverted	614.2	1	cg
30	96	R_L	self	inverted	734.8	1	cg
30	97	L_L	other	inverted	634.1	1	cg
30	98	L_R	other	inverted	473.4	1	cg
30	99	L_R	self	inverted	705.2	1	cg
30	100	R_L	other	inverted	714.8	1	cg
30	101	L_L	self	inverted	573.8	1	cg
30	102	R_R	other	inverted	614	1	cg
30	103	R_R	other	inverted	674.2	1	cg
30	104	R_L	other	inverted	734.5	1	cg
30	105	R_R	other	inverted	573.9	1	cg
30	106	R_R	other	inverted	674.4	1	cg
30	107	R_R	self	inverted	553.7	1	cg
30	108	L_R	self	inverted	523.8	1	cg
30	109	R_L	other	inverted	543.7	1	cg
30	110	R_R	other	inverted	604.4	1	cg
30	111	R_L	other	inverted	614.3	1	cg
30	112	R_R	self	inverted	463.3	0	cg
30	113	R_R	self	inverted	755.2	1	cg
30	114	R_L	other	inverted	543.5	1	cg
30	115	L_R	self	inverted	533.8	1	cg
30	116	L_R	self	inverted	503.8	1	cg
30	117	L_R	self	inverted	744.9	1	cg
30	118	L_R	other	inverted	634.1	1	cg
30	119	L_L	other	inverted	735	1	cg
30	120	L_L	other	inverted	613.9	0	cg
30	121	L_L	other	inverted	534	0	cg
30	122	R_L	other	inverted	553.6	1	cg
30	123	R_L	other	inverted	624.4	1	cg
30	124	L_R	other	inverted	724.7	1	cg
30	125	L_R	other	inverted	734.7	1	cg
30	126	L_R	self	inverted	573.9	0	cg
30	127	L_R	other	inverted	624.1	1	cg
30	128	R_L	other	inverted	563.9	1	cg
30	129	R_R	other	inverted	553.6	1	cg
30	130	L_L	self	inverted	513.4	1	cg
30	131	L_R	self	inverted	483.2	1	cg
30	132	L_L	other	inverted	543.7	1	cg
30	133	L_R	self	inverted	533.5	1	cg
30	134	R_R	self	inverted	533.7	1	cg
30	135	L_R	other	inverted	554	1	cg
30	136	R_L	self	inverted	554	1	cg
30	137	R_R	other	inverted	553.7	1	cg
30	138	R_R	other	inverted	573.6	1	cg
30	139	R_R	other	inverted	553.6	1	cg
30	140	L_L	other	inverted	744.5	1	cg
30	141	L_L	self	inverted	574.1	1	cg
30	142	L_R	other	inverted	533.5	1	cg
30	143	R_L	other	inverted	594.2	1	cg
30	144	R_L	self	inverted	543.8	1	cg
30	145	R_L	other	inverted	553.9	1	cg
30	146	R_L	self	inverted	563.6	1	cg
30	147	L_R	self	inverted	563.9	0	cg
30	148	L_L	self	inverted	534	1	cg
30	149	R_L	self	inverted	553.8	1	cg
30	150	L_L	self	inverted	603.8	1	cg
30	151	L_L	other	inverted	603.9	1	cg
30	152	L_L	other	inverted	704.7	1	cg
30	153	R_L	self	inverted	513.4	1	cg
30	154	R_R	self	inverted	634.1	1	cg
30	155	L_L	self	inverted	483.3	1	cg
30	156	L_R	other	inverted	503.5	1	cg
30	157	L_L	self	inverted	664.2	1	cg
30	158	R_L	self	inverted	513.4	1	cg
30	159	R_L	self	inverted	493.7	1	cg
30	160	R_L	self	inverted	453.1	1	cg
32	1	L_L	other	upright	775.1	1	cp
32	2	L_L	other	upright	724.8	1	cp
32	3	L_R	other	upright	684.7	1	cp
32	4	L_L	self	upright	895.8	1	cp
32	5	L_R	self	upright	975.9	1	cp
32	6	R_R	other	upright	765.1	1	cp
32	7	R_R	other	upright	504	1	cp
32	8	R_R	other	upright	402.9	1	cp
32	9	L_L	self	upright	724.8	1	cp
32	10	L_L	self	upright	634.4	1	cp
32	11	R_L	self	upright	735.5	1	cp
32	12	R_R	self	upright	704.6	1	cp
32	13	L_L	self	upright	714.7	1	cp
32	14	L_R	other	upright	805	1	cp
32	15	L_L	other	upright	684.5	1	cp
32	16	L_R	self	upright	543.6	1	cp
32	17	R_R	other	upright	533.6	1	cp
32	18	L_R	self	upright	614.4	1	cp
32	19	R_R	other	upright	1066.6	1	cp
32	20	R_R	other	upright	654.2	1	cp
32	21	L_R	self	upright	1378.4	1	cp
32	22	R_L	self	upright	735.1	1	cp
32	23	R_R	self	upright	584.2	1	cp
32	24	R_R	self	upright	704.7	1	cp
32	25	R_R	other	upright	684.8	1	cp
32	26	L_L	self	upright	955.7	1	cp
32	27	L_R	self	upright	764.8	1	cp
32	28	L_R	self	upright	573.7	1	cp
32	29	R_L	other	upright	654.3	1	cp
32	30	L_R	other	upright	644.2	1	cp
32	31	R_R	self	upright	956.1	1	cp
32	32	R_R	self	upright	765	1	cp
32	33	L_R	self	upright	1016.4	1	cp
32	34	L_R	other	upright	744.6	1	cp
32	35	R_L	other	upright	634.3	1	cp
32	36	L_L	self	upright	976	1	cp
32	37	L_L	other	upright	805.3	1	cp
32	38	R_L	self	upright	684.4	1	cp
32	39	R_L	other	upright	614.1	1	cp
32	40	R_R	other	upright	1147.4	1	cp
32	41	L_R	other	upright	865.3	1	cp
32	42	R_L	other	upright	1046.4	1	cp
32	43	R_L	other	upright	1016.8	1	cp
32	44	R_L	self	upright	574	1	cp
32	45	R_L	self	upright	804.9	1	cp
32	46	R_R	other	upright	865.9	1	cp
32	47	L_R	other	upright	614	1	cp
32	48	R_L	self	upright	724.6	1	cp
32	49	L_R	self	upright	563.8	1	cp
32	50	R_L	other	upright	523.6	1	cp
32	51	L_L	other	upright	674.8	1	cp
32	52	L_L	self	upright	573.9	1	cp
32	53	L_L	other	upright	463.4	1	cp
32	54	R_R	other	upright	553.8	1	cp
32	55	L_R	self	upright	614.2	1	cp
32	56	R_L	other	upright	624.1	1	cp
32	57	R_R	self	upright	573.9	1	cp
32	58	L_L	other	upright	583.8	1	cp
32	59	L_R	other	upright	956.1	1	cp
32	60	L_L	self	upright	563.9	1	cp
32	61	R_L	other	upright	654.3	1	cp
32	62	R_L	other	upright	543.7	1	cp
32	63	R_L	self	upright	604.1	1	cp
32	64	L_L	other	upright	654.3	1	cp
32	65	R_R	self	upright	554.1	1	cp
32	66	L_R	other	upright	563.8	1	cp
32	67	L_R	self	upright	563.7	1	cp
32	68	R_L	self	upright	694.9	1	cp
32	69	L_L	self	upright	584.1	1	cp
32	70	R_L	self	upright	634.3	1	cp
32	71	L_R	other	upright	754.9	1	cp
32	72	R_L	self	upright	583.8	1	cp
32	73	L_L	other	upright	714.9	1	cp
32	74	L_R	other	upright	603.9	1	cp
32	75	R_R	self	upright	785.4	1	cp
32	76	L_L	other	upright	875.3	1	cp
32	77	R_L	other	upright	644.4	1	cp
32	78	L_L	self	upright	513.8	1	cp
32	79	R_R	self	upright	533.9	1	cp
32	80	R_R	self	upright	403.1	1	cp
32	81	L_L	other	inverted	1569.8	1	cp
32	82	L_R	other	inverted	1940.8	1	cp
32	83	L_R	self	inverted	1016.9	1	cp
32	84	L_R	other	inverted	905.8	1	cp
32	85	L_L	self	inverted	2282.7	1	cp
32	86	R_R	self	inverted	1438.1	1	cp
32	87	R_L	other	inverted	785.3	1	cp
32	88	L_L	other	inverted	583.9	1	cp
32	89	L_R	other	inverted	1368.1	1	cp
32	90	R_L	other	inverted	1448.5	1	cp
32	91	R_L	other	inverted	694.6	1	cp
32	92	R_L	other	inverted	1116.9	1	cp
32	93	L_L	other	inverted	1016.2	1	cp
32	94	R_L	other	inverted	2544.3	1	cp
32	95	R_R	self	inverted	1479	1	cp
32	96	L_R	self	inverted	2413.5	1	cp
32	97	L_L	self	inverted	624	1	cp
32	98	R_L	self	inverted	715.1	1	cp
32	99	R_L	self	inverted	674.7	1	cp
32	100	R_R	other	inverted	1036.4	1	cp
32	101	R_L	self	inverted	1066.3	1	cp
32	102	L_R	self	inverted	594.2	1	cp
32	103	L_L	self	inverted	614.1	1	cp
32	104	R_R	other	inverted	674.4	1	cp
32	105	L_L	other	inverted	755.2	1	cp
32	106	L_L	other	inverted	875.2	1	cp
32	107	L_R	self	inverted	1026.1	1	cp
32	108	L_R	other	inverted	896.7	1	cp
32	109	R_L	self	inverted	664.3	1	cp
32	110	R_R	self	inverted	734.7	1	cp
32	111	L_L	self	inverted	976.4	1	cp
32	112	L_L	self	inverted	654.3	1	cp
32	113	R_R	self	inverted	1177.3	1	cp
32	114	L_L	self	inverted	614.1	1	cp
32	115	L_R	self	inverted	1891.1	1	cp
32	116	R_R	self	inverted	1448.8	1	cp
32	117	L_L	other	inverted	765	1	cp
32	118	R_R	other	inverted	835.2	1	cp
32	119	R_L	self	inverted	1076.4	1	cp
32	120	L_R	other	inverted	563.9	1	cp
32	121	R_L	self	inverted	996	1	cp
32	122	L_R	other	inverted	905.7	1	cp
32	123	R_L	self	inverted	714.6	1	cp
32	124	R_L	other	inverted	734.6	1	cp
32	125	R_R	self	inverted	684.4	1	cp
32	126	L_R	self	inverted	956.1	1	cp
32	127	R_R	self	inverted	925.6	1	cp
32	128	R_R	self	inverted	634.1	1	cp
32	129	R_R	other	inverted	654.5	1	cp
32	130	L_L	self	inverted	594.2	1	cp
32	131	R_R	other	inverted	1036.3	1	cp
32	132	R_R	other	inverted	564	1	cp
32	133	L_R	self	inverted	634.1	1	cp
32	134	L_R	other	inverted	715	1	cp
32	135	L_R	self	inverted	704.8	1	cp
32	136	L_L	self	inverted	725	1	cp
32	137	R_L	other	inverted	614.1	1	cp
32	138	L_L	self	inverted	845.5	1	cp
32	139	L_L	other	inverted	795.6	1	cp
32	140	L_R	self	inverted	895.6	1	cp
32	141	R_R	other	inverted	1107	1	cp
32	142	L_L	self	inverted	755.1	1	cp
32	143	R_L	self	inverted	734.5	1	cp
32	144	R_L	other	inverted	604	1	cp
32	145	R_R	self	inverted	795.7	1	cp
32	146	L_R	other	inverted	583.9	1	cp
32	147	R_R	other	inverted	553.7	1	cp
32	148	R_R	other	inverted	584	1	cp
32	149	L_L	other	inverted	936.1	1	cp
32	150	L_L	other	inverted	1016.1	1	cp
32	151	R_L	other	inverted	1679.4	1	cp
32	152	L_R	other	inverted	1599.5	1	cp
32	153	R_R	self	inverted	865.8	1	cp
32	154	R_L	self	inverted	604.2	1	cp
32	155	R_L	self	inverted	765.1	1	cp
32	156	R_R	other	inverted	664.9	1	cp
32	157	L_R	other	inverted	1196.9	1	cp
32	158	R_L	other	inverted	825.1	1	cp
32	159	L_L	other	inverted	805.1	1	cp
32	160	L_R	self	inverted	1006.7	1	cp
33	1	L_R	other	upright	785.2	1	cp
33	2	R_R	other	upright	775.7	1	cp
33	3	L_R	self	upright	533.8	1	cp
33	4	L_L	other	upright	634.8	1	cp
33	5	R_L	other	upright	644.8	1	cp
33	6	L_R	self	upright	553.7	1	cp
33	7	R_R	self	upright	583.8	1	cp
33	8	R_R	other	upright	634.6	1	cp
33	9	R_L	self	upright	644.2	1	cp
33	10	L_L	other	upright	724.4	1	cp
33	11	L_R	self	upright	644.6	1	cp
33	12	L_L	self	upright	574.4	1	cp
33	13	L_L	self	upright	755.1	1	cp
33	14	R_R	self	upright	453.4	1	cp
33	15	R_L	other	upright	664.1	1	cp
33	16	R_L	self	upright	523.4	1	cp
33	17	R_R	other	upright	674.4	1	cp
33	18	L_R	other	upright	614.5	1	cp
33	19	L_L	self	upright	603.8	1	cp
33	20	R_L	self	upright	564.2	1	cp
33	21	R_R	other	upright	774.7	1	cp
33	22	L_L	other	upright	855.3	1	cp
33	23	R_L	self	upright	584.6	1	cp
33	24	L_R	other	upright	664.5	1	cp
33	25	R_L	other	upright	774.9	1	cp
33	26	L_R	self	upright	594.4	1	cp
33	27	L_L	self	upright	573.7	1	cp
33	28	R_R	self	upright	724.9	1	cp
33	29	L_L	other	upright	684.5	1	cp
33	30	L_R	other	upright	926	1	cp
33	31	L_L	self	upright	584	1	cp
33	32	L_L	other	upright	674.7	1	cp
33	33	R_R	self	upright	604.3	1	cp
33	34	L_L	self	upright	624.3	1	cp
33	35	L_L	other	upright	885.7	1	cp
33	36	L_L	other	upright	855.2	1	cp
33	37	L_L	other	upright	664.5	1	cp
33	38	L_R	other	upright	885.5	1	cp
33	39	R_L	self	upright	543.7	1	cp
33	40	L_L	self	upright	583.8	1	cp
33	41	L_R	other	upright	624.4	1	cp
33	42	R_R	self	upright	543.8	1	cp
33	43	R_L	self	upright	553.8	1	cp
33	44	R_L	other	upright	584.1	1	cp
33	45	L_L	self	upright	443.2	1	cp
33	46	R_R	self	upright	493.7	1	cp
33	47	R_L	other	upright	574	1	cp
33	48	R_R	other	upright	634.1	1	cp
33	49	L_R	self	upright	573.7	1	cp
33	50	R_R	other	upright	764.8	1	cp
33	51	L_L	other	upright	705	1	cp
33	52	R_R	other	upright	674.2	1	cp
33	53	L_R	other	upright	674.8	1	cp
33	54	R_R	other	upright	603.8	1	cp
33	55	R_L	other	upright	674.2	1	cp
33	56	R_R	self	upright	553.7	1	cp
33	57	R_R	other	upright	764.6	1	cp
33	58	R_L	other	upright	694.4	1	cp
33	59	L_R	self	upright	573.6	1	cp
33	60	L_R	other	upright	764.6	1	cp
33	61	R_R	self	upright	513.5	1	cp
33	62	R_L	self	upright	503.4	1	cp
33	63	R_L	other	upright	593.9	1	cp
33	64	R_R	self	upright	543.6	1	cp
33	65	L_L	other	upright	634.2	1	cp
33	66	R_L	self	upright	624.1	1	cp
33	67	R_R	self	upright	503.5	1	cp
33	68	R_L	self	upright	573.7	1	cp
33	69	L_L	self	upright	543.9	1	cp
33	70	R_L	self	upright	423.3	1	cp
33	71	L_L	self	upright	473.2	1	cp
33	72	L_R	other	upright	623.9	1	cp
33	73	R_R	other	upright	624.3	1	cp
33	74	R_L	other	upright	633.9	1	cp
33	75	R_L	other	upright	553.8	1	cp
33	76	L_R	self	upright	523.5	1	cp
33	77	L_R	other	upright	734.5	1	cp
33	78	L_R	self	upright	573.7	1	cp
33	79	L_R	self	upright	463.2	1	cp
33	80	L_R	self	upright	503.5	1	cp
33	81	L_R	self	inverted	956	1	cp
33	82	L_R	other	inverted	674.4	1	cp
33	83	R_R	other	inverted	804.8	1	cp
33	84	R_L	other	inverted	1106.5	1	cp
33	85	R_L	self	inverted	905.3	1	cp
33	86	L_L	other	inverted	1428.3	1	cp
33	87	L_L	other	inverted	1246.9	1	cp
33	88	L_L	other	inverted	1458	1	cp
33	89	R_R	self	inverted	1005.9	1	cp
33	90	L_L	other	inverted	966.1	1	cp
33	91	L_R	other	inverted	825.5	1	cp
33	92	L_L	self	inverted	955.6	1	cp
33	93	R_R	other	inverted	684.5	1	cp
33	94	L_R	other	inverted	945.6	1	cp
33	95	L_R	other	inverted	1036.2	1	cp
33	96	L_L	self	inverted	834.9	1	cp
33	97	L_L	self	inverted	976	1	cp
33	98	L_R	other	inverted	644.6	1	cp
33	99	L_L	self	inverted	1026.1	1	cp
33	100	R_R	other	inverted	784.8	1	cp
33	101	L_R	self	inverted	1016.7	1	cp
33	102	R_L	other	inverted	885.3	1	cp
33	103	L_R	self	inverted	1338.2	1	cp
33	104	R_R	other	inverted	855	1	cp
33	105	L_R	self	inverted	654.2	1	cp
33	106	L_L	self	inverted	1046.2	1	cp
33	107	R_R	other	inverted	654.5	1	cp
33	108	L_L	self	inverted	784.9	1	cp
33	109	R_R	self	inverted	935.5	1	cp
33	110	L_L	other	inverted	1318.2	1	cp
33	111	R_L	other	inverted	1247	1	cp
33	112	R_R	other	inverted	1116.3	1	cp
33	113	L_R	other	inverted	1327.5	1	cp
33	114	R_R	self	inverted	966	1	cp
33	115	L_L	self	inverted	1016.1	1	cp
33	116	R_R	self	inverted	1116.5	1	cp
33	117	R_L	other	inverted	1076.3	1	cp
33	118	R_R	self	inverted	734.7	1	cp
33	119	R_L	self	inverted	995.9	1	cp
33	120	R_R	self	inverted	1347.7	1	cp
33	121	R_R	self	inverted	714.6	1	cp
33	122	L_R	self	inverted	714.8	1	cp
33	123	R_L	self	inverted	714.8	1	cp
33	124	R_L	other	inverted	784.8	1	cp
33	125	L_L	self	inverted	845.2	1	cp
33	126	R_R	other	inverted	805	1	cp
33	127	R_R	other	inverted	935.6	1	cp
33	128	R_L	self	inverted	694.3	1	cp
33	129	R_R	self	inverted	885.3	1	cp
33	130	R_L	self	inverted	634.2	1	cp
33	131	L_R	self	inverted	815	1	cp
33	132	L_R	other	inverted	915.7	1	cp
33	133	L_L	self	inverted	724.4	1	cp
33	134	R_L	self	inverted	815	1	cp
33	135	L_L	other	inverted	724.6	1	cp
33	136	R_L	self	inverted	664.4	1	cp
33	137	L_R	self	inverted	624.1	1	cp
33	138	L_R	other	inverted	714.5	1	cp
33	139	L_R	other	inverted	845.4	1	cp
33	140	R_L	other	inverted	714.9	1	cp
33	141	R_R	other	inverted	875.6	1	cp
33	142	R_R	other	inverted	1066.1	1	cp
33	143	R_L	self	inverted	744.7	1	cp
33	144	R_R	self	inverted	553.7	1	cp
33	145	L_L	self	inverted	603.9	1	cp
33	146	R_L	other	inverted	614.2	1	cp
33	147	L_L	other	inverted	764.6	1	cp
33	148	L_R	other	inverted	624.2	1	cp
33	149	L_L	other	inverted	634.3	1	cp
